rtcDate,rtcTime,aX,aY,aZ,gX,gY,gZ,mX,mY,mZ,imu_degC,output_Hz,
07/02/2025,12:20:54.39,206.05,-692.38,614.26,-8.71,-11.82,-8.92,2.40,-31.20,23.85,31.48,0.0,
07/02/2025,12:20:54.49,277.83,-708.98,564.94,-22.21,-28.56,-29.50,1.20,-34.65,22.35,31.38,20.0,
07/02/2025,12:20:54.59,497.07,-876.95,652.83,-2.92,-9.77,-18.21,-2.55,-36.0,23.70,31.24,15.0,
07/02/2025,12:20:54.69,379.88,-771.48,605.47,3.26,1.02,2.93,-1.35,-36.0,24.0,31.58,13.333,
07/02/2025,12:20:54.79,358.89,-713.87,574.22,1.47,0.92,-1.34,-2.55,-35.70,24.75,31.05,12.500,
07/02/2025,12:20:54.89,356.93,-730.47,583.50,0.74,-2.50,1.33,-1.95,-34.35,23.85,31.53,12.0,
07/02/2025,12:20:54.99,393.55,-760.74,588.87,1.07,-1.75,0.24,-1.35,-36.45,24.0,31.38,11.667,
07/02/2025,12:20:55.09,385.25,-738.77,595.70,3.04,2.85,0.43,-1.20,-35.55,23.55,31.38,11.429,
07/02/2025,12:20:55.19,340.82,-769.04,592.29,6.59,9.28,4.64,-0.90,-36.30,22.35,31.38,11.250,
07/02/2025,12:20:55.29,306.64,-743.65,631.84,18.22,57.63,2.89,1.80,-33.30,24.45,31.19,11.111,
07/02/2025,12:20:55.39,-3.42,-812.99,-143.07,39.38,130.55,10.84,10.05,-29.85,23.70,31.72,11.0,
07/02/2025,12:20:55.49,-213.38,-626.95,526.86,1.08,152.12,26.92,20.40,-30.30,17.85,31.48,10.811,
07/02/2025,12:20:55.59,-200.20,-642.58,703.61,42.23,59.89,29.29,25.95,-28.80,14.25,31.19,10.744,
07/02/2025,12:20:55.69,-433.59,-610.84,792.97,69.36,22.60,-5.09,29.70,-24.15,12.30,31.38,10.687,
07/02/2025,12:20:55.80,-395.02,-522.46,898.93,77.73,-39.82,22.53,31.95,-19.95,15.30,31.24,10.638,
07/02/2025,12:20:55.90,-229.00,-252.93,1063.96,90.82,7.39,9.35,29.70,-12.30,16.35,31.38,10.596,
07/02/2025,12:20:56.00,-215.82,-119.63,1079.10,23.80,54.68,-24.13,29.85,-8.55,15.90,31.14,10.559,
07/02/2025,12:20:56.10,-355.96,-234.38,941.89,-2.05,26.67,-3.26,33.15,-10.65,15.30,31.38,10.526,
07/02/2025,12:20:56.20,-318.36,-225.10,958.50,17.90,3.96,19.92,33.15,-9.90,12.0,31.48,10.497,
07/02/2025,12:20:56.30,-368.16,-160.64,885.74,38.0,-18.50,24.74,32.85,-7.35,12.90,31.48,10.471,
07/02/2025,12:20:56.40,-328.61,-56.15,670.90,-4.43,50.37,-2.66,31.65,-4.20,13.50,31.14,10.448,
07/02/2025,12:20:56.50,-406.74,-100.59,1002.44,53.45,7.05,27.98,33.30,-3.15,12.90,31.05,10.427,
07/02/2025,12:20:56.60,-420.90,-14.16,986.33,20.79,6.20,23.56,33.15,-0.75,12.0,31.48,10.407,
07/02/2025,12:20:56.70,-464.84,9.77,971.68,1.59,9.08,6.12,33.30,-0.15,11.40,31.53,10.390,
07/02/2025,12:20:56.80,-473.14,34.67,953.13,0.96,15.71,9.04,33.60,3.90,9.60,31.58,10.373,
07/02/2025,12:20:56.90,-478.03,89.36,950.20,0.74,7.02,-11.09,33.30,3.60,10.35,31.67,10.317,
07/02/2025,12:20:57.00,-563.96,275.39,950.68,25.11,0.41,-27.18,35.10,2.40,9.60,31.58,10.305,
07/02/2025,12:20:57.10,-463.87,21.97,854.00,31.11,-42.38,-139.63,34.95,0.30,7.95,32.20,10.294,
07/02/2025,12:20:57.21,-300.29,-271.48,864.26,36.83,-58.40,-178.51,37.35,-9.30,11.40,32.10,10.284,
07/02/2025,12:20:57.31,-49.32,-203.13,848.14,4.40,-16.34,-97.22,34.65,-17.25,14.25,31.91,10.274,
07/02/2025,12:20:57.41,-83.98,-206.05,867.68,85.60,-69.01,-52.90,33.45,-19.20,17.85,32.10,10.265,
07/02/2025,12:20:57.51,-320.80,58.11,1584.96,-22.76,99.35,16.24,32.40,-11.40,17.85,31.91,10.256,
07/02/2025,12:20:57.61,-187.99,-151.86,669.43,-4.36,-40.73,46.60,34.65,-11.85,19.05,32.01,10.248,
07/02/2025,12:20:57.71,59.08,105.96,636.23,31.94,181.98,13.25,33.90,-6.45,16.05,31.72,10.241,
07/02/2025,12:20:57.81,-187.01,33.20,1008.79,25.09,34.42,3.72,38.10,-5.85,11.85,32.20,10.234,
07/02/2025,12:20:57.91,-281.74,61.04,920.41,-1.58,0.69,-1.55,38.55,-6.30,11.10,32.06,10.227,
07/02/2025,12:20:58.01,-325.68,75.68,1001.46,1.08,-2.96,-0.08,38.55,-6.60,12.60,31.72,10.221,
07/02/2025,12:20:58.11,-317.38,64.94,967.77,-1.55,-0.55,-1.81,36.75,-6.90,11.25,31.86,10.215,
07/02/2025,12:20:58.21,-312.50,87.89,976.07,0.34,-3.87,0.31,38.25,-5.70,12.30,31.48,10.209,
07/02/2025,12:20:58.31,-315.92,80.08,974.12,-0.50,3.15,-2.62,38.25,-6.15,12.0,31.72,10.178,
07/02/2025,12:20:58.41,-312.50,74.22,969.73,1.02,0.18,0.16,40.20,-5.25,12.75,31.67,10.174,
07/02/2025,12:20:58.51,-314.45,76.17,970.21,-0.50,1.32,-0.40,39.45,-5.70,12.0,31.58,10.169,
07/02/2025,12:20:58.61,-310.06,66.41,977.54,0.20,0.33,1.37,40.20,-5.70,13.50,31.58,10.165,
07/02/2025,12:20:58.72,-323.73,65.43,973.14,-1.15,0.85,-1.11,37.80,-4.80,11.10,31.67,10.162,
07/02/2025,12:20:58.82,-316.41,95.21,976.56,-0.85,0.81,1.69,37.95,-6.45,10.95,31.67,10.158,
07/02/2025,12:20:58.92,-310.55,79.10,969.73,0.84,-0.53,1.76,39.30,-6.30,12.60,31.72,10.155,
07/02/2025,12:20:59.02,-310.55,78.61,971.19,1.56,1.32,-1.14,40.05,-6.30,12.15,31.72,10.151,
07/02/2025,12:20:59.12,-307.62,76.17,985.35,1.56,-0.47,-0.41,38.55,-5.10,12.60,31.48,10.148,
07/02/2025,12:20:59.22,-309.08,73.73,959.47,1.02,0.35,-1.98,37.80,-5.85,11.85,31.38,10.145,
07/02/2025,12:20:59.32,-316.89,67.38,965.33,-0.30,-0.85,2.22,38.25,-4.20,11.70,31.48,10.142,
07/02/2025,12:20:59.42,-318.36,82.03,968.75,0.72,0.07,1.16,39.30,-5.55,11.85,31.19,10.139,
07/02/2025,12:20:59.52,-326.66,68.85,974.12,2.28,-3.62,-1.14,38.85,-4.80,11.10,31.58,10.136,
07/02/2025,12:20:59.62,-327.15,62.01,972.66,-0.95,-2.36,0.40,39.45,-5.25,11.70,31.34,10.134,
07/02/2025,12:20:59.72,-313.96,64.94,971.19,-2.06,2.65,-0.32,39.60,-6.30,12.90,31.48,10.112,
07/02/2025,12:20:59.82,-323.73,63.96,971.19,2.06,-0.82,0.42,39.45,-6.90,12.0,31.58,10.110,
07/02/2025,12:20:59.92,-310.06,72.27,974.61,0.50,-0.67,-0.92,38.70,-6.45,11.70,31.38,10.108,
07/02/2025,12:21:00.03,-318.85,90.82,975.10,-0.38,-0.92,3.39,39.75,-5.70,11.25,31.24,10.106,
07/02/2025,12:21:00.13,-313.48,84.96,969.24,-1.86,-1.90,-0.15,38.85,-5.10,13.20,31.38,10.105,
07/02/2025,12:21:00.23,-321.29,67.87,970.21,-0.76,0.09,-3.87,38.70,-6.45,11.25,31.34,10.103,
07/02/2025,12:21:00.33,-324.71,69.82,961.43,1.21,-1.30,-0.13,40.05,-4.35,11.85,31.19,10.101,
07/02/2025,12:21:00.43,-318.36,79.10,967.77,-2.66,0.88,-0.08,40.80,-7.05,10.35,31.24,10.099,
07/02/2025,12:21:00.53,-324.22,81.05,967.29,-0.40,-0.80,-1.53,39.60,-6.30,11.10,31.24,10.098,
07/02/2025,12:21:00.63,-319.82,61.52,971.68,-0.62,1.83,-0.76,39.45,-5.70,11.70,31.38,10.096,
07/02/2025,12:21:00.73,-305.66,63.48,976.07,0.72,1.21,1.89,38.10,-5.10,11.40,31.19,10.095,
07/02/2025,12:21:00.83,-320.31,79.59,966.31,0.41,-1.98,4.72,38.55,-5.85,12.15,31.38,10.093,
07/02/2025,12:21:00.93,-308.59,71.78,963.87,-0.34,0.65,0.07,40.80,-5.55,10.35,31.19,10.092,
07/02/2025,12:21:01.03,-307.13,71.29,974.61,0.39,-1.90,-1.23,38.85,-5.85,11.40,31.14,10.090,
07/02/2025,12:21:01.13,-311.04,69.82,982.91,-1.31,0.93,-3.80,40.05,-3.90,12.60,31.48,10.089,
07/02/2025,12:21:01.23,-316.89,58.11,967.29,2.07,-2.85,-1.36,39.45,-5.25,12.30,31.24,10.073,
07/02/2025,12:21:01.33,-329.10,69.82,974.61,1.91,-2.74,-0.50,38.70,-5.70,10.50,31.38,10.072,
07/02/2025,12:21:01.43,-320.80,73.24,962.89,0.20,0.08,0.76,37.95,-4.95,11.25,31.24,10.071,
07/02/2025,12:21:01.54,-308.11,82.52,978.52,0.87,0.81,0.37,38.25,-4.20,12.0,31.24,10.070,
07/02/2025,12:21:01.64,-324.71,78.13,969.24,-1.90,3.85,-2.01,39.60,-6.30,11.40,31.14,10.069,
07/02/2025,12:21:01.74,-310.06,76.66,967.29,2.05,-2.09,1.52,38.70,-6.15,10.95,31.48,10.068,
07/02/2025,12:21:01.84,-314.45,79.10,961.91,0.54,-1.85,1.73,38.55,-5.55,12.15,31.38,10.067,
07/02/2025,12:21:01.94,-317.87,74.22,962.40,-1.07,0.79,2.44,40.20,-5.25,12.30,31.05,10.066,
07/02/2025,12:21:02.04,-313.96,71.78,965.33,1.13,-2.47,0.45,38.55,-4.35,12.90,31.24,10.065,
07/02/2025,12:21:02.14,-315.92,76.17,960.45,-0.95,-0.66,-2.43,38.10,-4.80,11.85,31.38,10.065,
07/02/2025,12:21:02.24,-319.82,66.41,960.94,0.11,-1.27,-1.13,39.45,-6.90,12.0,31.38,10.064,
07/02/2025,12:21:02.34,-315.92,78.13,966.80,-0.44,2.17,-1.47,39.0,-5.25,10.50,31.34,10.063,
07/02/2025,12:21:02.44,-326.17,69.82,970.21,-0.37,-0.02,-0.64,39.30,-7.05,11.85,31.14,10.062,
07/02/2025,12:21:02.54,-315.43,68.36,970.70,-0.05,-0.85,1.85,40.35,-5.55,11.40,31.34,10.049,
07/02/2025,12:21:02.64,-320.31,84.96,960.94,-0.82,-0.18,-0.33,40.20,-5.25,11.25,31.05,10.048,
07/02/2025,12:21:02.74,-319.82,80.57,958.98,0.45,-1.49,3.32,37.80,-6.60,11.40,31.24,10.048,
07/02/2025,12:21:02.84,-322.27,64.45,968.75,-0.07,3.08,-0.94,40.50,-4.50,12.0,31.05,10.047,
07/02/2025,12:21:02.95,-316.89,73.24,963.87,-1.35,1.50,0.22,38.85,-5.85,12.15,31.34,10.047,
07/02/2025,12:21:03.05,-321.29,70.31,958.98,1.69,-0.30,-1.73,39.30,-4.35,12.15,31.19,10.046,
07/02/2025,12:21:03.15,-319.34,83.50,974.12,-0.19,-0.61,0.76,39.60,-4.80,12.15,31.19,10.046,
07/02/2025,12:21:03.25,-315.43,81.54,970.21,1.03,0.57,1.45,38.10,-5.10,13.20,31.14,10.045,
07/02/2025,12:21:03.35,-317.38,79.59,970.70,-0.14,-1.80,0.65,38.70,-6.45,12.0,31.24,10.045,
07/02/2025,12:21:03.45,-308.59,72.27,958.01,-1.57,1.44,-1.32,38.70,-4.95,10.95,31.34,10.044,
07/02/2025,12:21:03.55,-314.45,75.68,969.73,1.76,0.46,-0.76,39.45,-6.15,12.30,30.86,10.044,
07/02/2025,12:21:03.65,-321.29,63.96,958.50,-2.0,1.42,-2.69,38.70,-4.50,11.25,31.38,10.043,
07/02/2025,12:21:03.75,-318.85,60.55,976.56,-0.50,1.65,-0.76,39.0,-5.25,12.75,31.14,10.043,
07/02/2025,12:21:03.85,-323.24,73.73,953.13,1.69,-2.44,-0.80,39.0,-6.15,12.30,31.19,10.042,
07/02/2025,12:21:03.95,-325.68,81.54,964.36,-1.85,1.0,-1.18,38.10,-5.55,13.20,31.38,10.031,
07/02/2025,12:21:04.05,-322.75,74.22,958.01,1.95,-3.80,2.55,37.80,-6.30,12.60,31.14,10.031,
07/02/2025,12:21:04.15,-318.36,67.38,960.45,-0.46,1.04,-1.59,38.85,-5.85,11.85,31.38,10.031,
07/02/2025,12:21:04.26,-312.01,65.43,974.61,-1.59,0.99,-1.63,38.55,-5.85,11.10,31.34,10.030,
07/02/2025,12:21:04.36,-317.87,57.13,953.13,-0.27,-1.14,1.55,38.55,-4.80,12.60,31.14,10.030,
07/02/2025,12:21:04.46,-309.08,67.87,954.59,-1.40,-0.62,0.27,39.45,-6.90,11.25,31.14,10.030,
07/02/2025,12:21:04.56,-311.52,71.29,964.84,0.36,-2.34,2.42,39.0,-5.70,12.30,31.34,10.029,
07/02/2025,12:21:04.66,-319.82,83.50,962.40,-1.06,-2.44,1.86,39.75,-5.25,10.95,31.14,10.029,
07/02/2025,12:21:04.76,-319.82,78.13,959.96,-0.24,3.84,0.73,37.95,-6.15,10.50,31.19,10.029,
07/02/2025,12:21:04.86,-331.05,70.31,959.47,0.48,-0.60,2.84,37.95,-5.25,11.70,31.14,10.029,
07/02/2025,12:21:04.96,-314.94,76.17,973.14,-0.11,2.76,0.71,38.25,-4.50,11.25,31.34,10.028,
07/02/2025,12:21:05.06,-306.15,66.89,964.84,2.07,-0.92,1.18,39.45,-6.45,11.70,31.14,10.028,
07/02/2025,12:21:05.16,-312.99,67.87,970.70,0.63,-2.89,2.38,39.30,-5.10,11.10,31.24,10.028,
07/02/2025,12:21:05.26,-328.61,78.13,973.14,0.62,0.44,-2.23,38.55,-6.60,10.35,31.34,10.028,
07/02/2025,12:21:05.36,-303.22,73.73,961.91,1.31,-1.70,1.92,39.0,-5.25,10.95,31.38,10.018,
07/02/2025,12:21:05.46,-311.04,82.52,972.17,1.39,1.17,0.39,39.30,-7.05,11.10,31.19,10.018,
07/02/2025,12:21:05.56,-327.64,70.80,962.40,0.54,0.66,-0.85,38.25,-6.45,12.0,31.14,10.018,
07/02/2025,12:21:05.67,-315.43,59.57,972.66,0.44,-1.44,1.42,38.55,-5.55,10.35,31.34,10.018,
07/02/2025,12:21:05.77,-304.69,68.85,966.31,-0.79,-0.86,-0.48,38.55,-6.60,11.85,31.05,10.018,
07/02/2025,12:21:05.87,-315.92,74.71,969.24,2.52,-2.85,3.05,39.0,-4.50,11.70,31.38,10.017,
07/02/2025,12:21:05.97,-327.64,71.29,957.52,0.18,-1.41,-0.33,37.80,-4.80,10.65,31.24,10.017,
07/02/2025,12:21:06.07,-331.05,76.66,969.73,-0.21,1.46,-0.79,38.85,-5.85,11.85,31.19,10.017,
07/02/2025,12:21:06.17,-314.94,68.36,970.21,-1.46,-0.27,1.19,38.55,-5.10,11.85,31.34,10.017,
07/02/2025,12:21:06.27,-321.78,84.96,962.89,-2.02,1.31,-3.47,37.80,-5.55,12.60,31.24,10.017,
07/02/2025,12:21:06.37,-323.73,70.80,963.87,-0.08,0.34,-0.42,40.20,-4.95,12.0,31.14,10.017,
07/02/2025,12:21:06.47,-323.24,76.66,970.70,1.63,0.04,0.21,38.25,-5.70,11.25,31.24,10.017,
07/02/2025,12:21:06.57,-307.62,80.08,961.43,-0.96,1.45,-2.28,38.25,-5.70,12.30,31.19,10.016,
07/02/2025,12:21:06.67,-323.24,61.52,955.08,0.54,-2.13,2.95,39.0,-4.95,12.0,31.14,10.016,
07/02/2025,12:21:06.77,-312.99,68.36,962.40,0.59,-1.85,1.47,40.20,-6.90,10.95,31.24,10.008,
07/02/2025,12:21:06.87,-324.22,87.89,971.19,0.86,0.34,-0.79,39.45,-5.25,12.0,31.19,10.008,
07/02/2025,12:21:06.97,-326.66,74.71,970.21,1.69,-0.08,0.62,38.10,-5.85,13.20,31.19,10.008,
07/02/2025,12:21:07.08,-312.01,80.57,963.87,-1.78,-0.29,0.54,38.25,-5.70,11.25,31.38,10.008,
07/02/2025,12:21:07.18,-306.15,71.29,967.77,0.10,0.78,-3.21,38.55,-5.10,11.40,31.19,10.008,
07/02/2025,12:21:07.28,-323.73,77.15,956.54,0.21,-0.33,1.53,38.85,-5.10,11.85,31.24,10.008,
07/02/2025,12:21:07.38,-324.22,70.31,958.50,-1.89,0.18,-1.79,39.60,-5.55,10.65,30.95,10.008,
07/02/2025,12:21:07.48,-313.48,78.61,971.19,0.01,0.03,-1.71,38.25,-5.70,11.70,31.24,10.008,
07/02/2025,12:21:07.58,-308.59,67.38,973.14,-0.34,-2.19,0.95,37.80,-5.55,10.65,31.05,10.008,
07/02/2025,12:21:07.68,-317.87,83.01,972.66,-0.47,1.18,-1.63,37.80,-4.80,10.50,31.38,10.008,
07/02/2025,12:21:07.78,-312.99,74.71,966.31,0.44,0.84,-0.99,38.55,-5.55,11.85,31.05,10.007,
07/02/2025,12:21:07.88,-309.57,74.71,959.47,-0.36,-1.44,1.17,40.20,-5.70,10.95,31.24,10.007,
07/02/2025,12:21:07.98,-322.75,68.36,950.20,-0.11,-1.47,-2.56,39.30,-5.10,11.40,31.19,10.007,
07/02/2025,12:21:08.08,-319.82,74.22,979.00,0.59,-0.94,0.27,40.35,-4.80,9.30,31.05,10.0,
07/02/2025,12:21:08.18,-313.96,90.33,955.08,-0.13,1.38,-0.27,40.20,-5.70,10.50,31.19,10.0,
07/02/2025,12:21:08.28,-330.08,89.36,974.61,-0.76,0.28,0.34,39.45,-5.25,10.50,31.14,10.0,
07/02/2025,12:21:08.38,-298.34,60.55,982.42,1.08,-0.93,0.63,39.30,-5.55,10.05,31.05,10.0,
07/02/2025,12:21:08.49,-313.96,59.08,954.59,0.88,1.23,-2.41,40.95,-3.75,10.50,31.05,10.0,
07/02/2025,12:21:08.59,-313.48,65.43,958.50,-0.04,-0.65,3.34,38.55,-4.80,11.40,31.05,10.0,
07/02/2025,12:21:08.69,-309.08,62.99,970.70,1.54,-2.81,1.65,39.60,-5.55,9.60,31.00,10.0,
07/02/2025,12:21:08.79,-334.47,79.10,976.56,-0.45,1.45,-1.83,39.0,-4.20,10.95,31.24,10.0,
07/02/2025,12:21:08.89,-314.45,65.92,975.59,-1.58,1.84,-0.70,40.35,-5.10,11.10,30.86,10.0,
07/02/2025,12:21:08.99,-316.41,67.38,972.66,0.81,-1.38,3.86,38.25,-3.45,12.30,31.34,10.0,
07/02/2025,12:21:09.09,-317.87,59.57,965.33,-0.48,0.05,-0.08,38.25,-3.45,11.25,31.05,10.0,
07/02/2025,12:21:09.19,-325.20,80.57,967.29,-1.73,0.05,0.10,39.0,-4.50,10.95,31.14,10.0,
07/02/2025,12:21:09.29,-323.73,79.59,964.84,0.21,-1.45,-1.54,39.60,-3.90,11.10,31.14,10.0,
07/02/2025,12:21:09.39,-323.73,75.68,957.03,-1.51,0.71,0.11,38.70,-4.95,10.50,31.24,10.0,
07/02/2025,12:21:09.49,-310.55,63.96,958.50,2.18,-0.81,0.76,39.45,-4.50,11.70,31.05,9.993,
07/02/2025,12:21:09.59,-321.78,62.99,963.38,0.51,-1.90,0.69,39.60,-5.55,11.85,31.14,9.993,
07/02/2025,12:21:09.69,-323.73,62.99,966.31,-0.54,-0.12,0.73,38.70,-4.95,9.75,31.14,9.993,
07/02/2025,12:21:09.80,-329.10,71.78,963.87,1.09,-2.21,1.94,39.45,-4.20,10.20,31.05,9.994,
07/02/2025,12:21:09.90,-321.78,74.22,959.96,1.15,-0.68,-1.28,39.60,-4.80,11.10,31.24,9.994,
07/02/2025,12:21:10.00,-311.04,76.17,961.43,-2.45,0.38,-0.05,40.05,-4.80,10.65,30.95,9.994,
07/02/2025,12:21:10.10,-317.87,76.17,958.01,-2.04,-0.10,-0.82,37.95,-3.45,10.20,31.14,9.994,
07/02/2025,12:21:10.20,-324.22,73.24,953.13,0.08,0.52,2.50,40.05,-3.15,9.30,31.14,9.994,
07/02/2025,12:21:10.30,-335.45,69.82,972.17,-0.98,-2.11,0.47,40.95,-4.20,10.95,31.24,9.994,
07/02/2025,12:21:10.40,-322.27,66.41,966.80,-0.85,2.84,-1.58,38.10,-3.60,9.60,31.14,9.994,
07/02/2025,12:21:10.50,-326.17,84.47,954.10,-0.29,-2.31,-1.24,39.45,-4.20,10.20,31.14,9.994,
07/02/2025,12:21:10.60,-302.25,68.36,949.71,1.55,-0.02,1.09,40.20,-4.20,10.95,31.14,9.994,
07/02/2025,12:21:10.70,-315.92,77.15,972.17,-1.74,-2.53,0.20,40.35,-4.35,10.65,31.05,9.994,
07/02/2025,12:21:10.80,-326.66,71.78,963.87,0.17,-0.22,2.43,38.25,-5.25,10.20,31.34,9.994,
07/02/2025,12:21:10.90,-318.85,78.61,967.29,0.25,1.01,0.02,39.0,-4.20,11.25,31.34,9.988,
07/02/2025,12:21:11.00,-318.85,67.87,964.36,-0.28,-0.73,2.49,38.85,-3.60,11.85,31.14,9.988,
07/02/2025,12:21:11.10,-317.38,72.27,963.87,-0.49,0.41,1.24,39.0,-4.50,11.25,31.34,9.988,
07/02/2025,12:21:11.21,-318.85,80.08,968.26,-0.89,1.21,0.47,39.30,-5.10,9.60,31.34,9.988,
07/02/2025,12:21:11.31,-321.29,72.27,965.82,0.92,-0.25,1.38,40.80,-5.10,11.10,31.24,9.988,
07/02/2025,12:21:11.41,-330.08,71.78,965.82,0.50,-0.66,2.88,39.0,-4.20,11.70,31.14,9.988,
07/02/2025,12:21:11.51,-330.08,53.22,950.68,-1.25,0.52,-2.40,38.25,-3.75,10.20,30.71,9.988,
07/02/2025,12:21:11.61,-327.64,67.38,943.36,0.65,-1.22,2.08,38.70,-4.20,11.70,31.24,9.988,
07/02/2025,12:21:11.71,-328.61,79.59,970.21,-0.04,-2.15,1.72,38.25,-4.95,11.70,31.14,9.988,
07/02/2025,12:21:11.81,-323.24,82.03,999.02,-1.10,-0.70,-0.89,39.45,-4.50,10.20,31.34,9.989,
07/02/2025,12:21:11.91,-325.20,83.01,964.84,2.02,-0.84,-2.68,39.75,-4.50,9.75,30.95,9.989,
07/02/2025,12:21:12.01,-329.10,72.75,961.91,-0.19,-0.79,-0.08,38.55,-3.60,10.35,31.14,9.989,
07/02/2025,12:21:12.11,-324.22,83.50,965.82,-1.24,0.48,0.82,38.55,-4.80,11.10,31.05,9.989,
07/02/2025,12:21:12.21,-322.75,61.52,961.43,0.97,-0.33,-1.23,40.20,-4.20,10.95,31.19,9.989,
07/02/2025,12:21:12.31,-309.57,69.34,960.45,-0.77,-0.86,-3.53,39.75,-4.95,12.0,31.14,9.983,
07/02/2025,12:21:12.41,-323.73,84.47,958.50,-0.20,2.15,-1.09,39.60,-2.85,11.10,31.14,9.983,
07/02/2025,12:21:12.51,-321.78,78.61,960.45,0.25,-1.07,5.08,39.60,-3.60,10.65,31.24,9.983,
07/02/2025,12:21:12.62,-308.59,78.61,965.33,-2.34,-0.16,-1.79,39.30,-3.90,11.10,31.24,9.984,
07/02/2025,12:21:12.72,-317.38,75.20,957.52,-0.36,-0.59,-2.41,39.30,-4.35,11.85,31.34,9.984,
07/02/2025,12:21:12.82,-312.50,78.61,962.89,1.62,-1.82,0.89,40.05,-5.55,11.10,30.81,9.984,
07/02/2025,12:21:12.92,-316.89,71.78,967.29,0.09,-1.92,-1.16,39.75,-5.25,12.30,31.34,9.984,
07/02/2025,12:21:13.02,-312.01,54.69,968.26,-0.56,1.16,-1.31,39.60,-3.60,10.65,30.86,9.984,
07/02/2025,12:21:13.12,-325.68,70.80,972.66,1.82,-0.29,-0.26,38.10,-4.35,10.65,31.19,9.984,
07/02/2025,12:21:13.22,-320.31,61.52,970.70,-0.68,-0.26,1.63,40.35,-5.85,12.60,31.05,9.984,
07/02/2025,12:21:13.32,-318.36,66.89,962.89,-0.66,-0.18,-2.22,38.85,-3.15,10.65,31.48,9.984,
07/02/2025,12:21:13.42,-312.50,77.64,962.40,0.13,-1.05,0.08,37.80,-3.90,10.65,31.34,9.984,
07/02/2025,12:21:13.52,-304.69,75.20,968.26,-1.02,1.76,-1.48,38.85,-4.35,10.05,31.05,9.984,
07/02/2025,12:21:13.62,-310.06,79.10,965.33,-1.34,-0.03,1.47,39.75,-5.70,9.75,31.24,9.979,
07/02/2025,12:21:13.72,-327.15,77.15,962.40,1.08,-0.98,1.23,39.0,-4.20,10.95,31.14,9.979,
07/02/2025,12:21:13.82,-329.59,82.52,961.43,-1.73,0.35,0.38,38.55,-5.10,10.05,31.38,9.979,
07/02/2025,12:21:13.92,-312.50,67.87,968.26,-3.03,0.28,-1.89,37.80,-3.90,10.05,31.14,9.980,
07/02/2025,12:21:14.03,-320.80,62.99,962.40,0.48,-1.20,1.14,40.35,-3.90,10.05,31.38,9.980,
07/02/2025,12:21:14.13,-305.66,90.82,963.38,0.29,0.73,-1.08,37.95,-4.20,11.25,31.24,9.980,
07/02/2025,12:21:14.23,-325.20,73.24,970.21,-0.95,-0.34,-1.80,39.30,-3.60,10.35,31.34,9.980,
07/02/2025,12:21:14.33,-311.52,71.29,958.50,-0.22,-1.14,-0.38,39.0,-4.20,10.50,31.05,9.980,
07/02/2025,12:21:14.43,-312.01,74.71,963.38,1.36,-0.15,-0.95,39.45,-3.75,9.45,31.38,9.980,
07/02/2025,12:21:14.53,-304.20,81.05,963.38,-0.36,0.26,-0.79,38.70,-3.75,10.95,31.05,9.980,
07/02/2025,12:21:14.63,-321.78,80.08,957.03,1.11,-0.71,1.76,40.20,-3.75,11.70,31.24,9.980,
07/02/2025,12:21:14.73,-316.41,68.85,962.40,2.05,-2.53,-0.34,39.45,-4.20,10.50,31.00,9.980,
07/02/2025,12:21:14.83,-331.54,69.82,956.54,-1.07,-0.05,-0.93,39.60,-4.80,11.40,31.38,9.980,
07/02/2025,12:21:14.93,-319.82,74.22,963.87,0.71,-2.50,4.81,39.0,-3.75,10.50,31.19,9.981,
07/02/2025,12:21:15.03,-311.04,67.87,960.94,0.20,2.29,-4.27,40.05,-4.35,10.65,31.14,9.976,
07/02/2025,12:21:15.13,-313.48,88.87,955.08,1.03,-0.67,0.33,38.85,-3.60,11.40,31.05,9.976,
07/02/2025,12:21:15.23,-327.15,63.48,966.80,-0.64,0.31,0.14,40.50,-3.75,10.20,31.24,9.976,
07/02/2025,12:21:15.34,-314.45,73.73,951.17,2.63,-1.26,3.36,39.45,-3.0,12.0,31.19,9.976,
07/02/2025,12:21:15.44,-315.92,75.20,967.77,0.76,-0.34,-0.79,40.05,-3.90,10.65,31.19,9.976,
07/02/2025,12:21:15.54,-313.96,62.50,963.38,1.89,-1.88,3.14,39.30,-3.60,11.85,31.38,9.976,
07/02/2025,12:21:15.64,-590.33,68.85,855.47,13.58,-27.51,1.15,39.0,-5.25,10.95,31.14,9.976,
07/02/2025,12:21:15.74,-172.36,113.77,1064.45,9.24,-8.56,12.58,38.85,-2.10,11.40,31.14,9.977,
07/02/2025,12:21:15.84,-307.13,126.95,926.27,0.11,15.41,-9.57,39.60,-3.90,10.05,31.14,9.977,
07/02/2025,12:21:15.94,-418.46,78.13,1020.51,-6.82,74.45,-2.95,42.90,-3.90,5.25,31.34,9.977,
07/02/2025,12:21:16.04,-559.57,97.66,930.18,3.88,80.13,9.26,46.20,-4.50,0.30,31.05,9.977,
07/02/2025,12:21:16.14,-603.03,244.63,904.79,25.79,49.96,77.62,46.20,-3.0,-6.90,31.38,9.977,
07/02/2025,12:21:16.24,-543.46,239.26,646.97,-40.33,27.79,110.74,43.50,3.45,-9.0,31.19,9.977,
07/02/2025,12:21:16.34,-508.79,282.71,640.63,-36.04,5.24,73.56,38.25,11.85,-7.95,31.38,9.977,
07/02/2025,12:21:16.44,-674.80,206.54,590.82,-5.11,51.40,-19.28,37.05,13.95,-9.60,31.05,9.973,
07/02/2025,12:21:16.54,-708.98,121.09,595.21,-45.95,50.76,-17.24,39.75,10.35,-12.75,31.38,9.973,
07/02/2025,12:21:16.64,-748.05,197.27,506.84,9.23,29.47,14.57,39.75,9.60,-12.75,31.48,9.973,
07/02/2025,12:21:16.75,-744.14,216.80,664.55,-13.79,3.78,30.14,39.30,11.70,-12.60,31.34,9.973,
07/02/2025,12:21:16.85,-700.68,294.43,701.17,-10.79,-5.16,21.80,37.80,13.50,-13.65,31.24,9.973,
07/02/2025,12:21:16.95,-660.64,242.19,743.65,6.57,2.10,12.19,37.95,14.55,-11.25,31.53,9.973,
07/02/2025,12:21:17.05,-704.10,346.19,719.24,-1.43,3.08,5.82,35.70,16.05,-12.30,31.53,9.974,
07/02/2025,12:21:17.15,-733.89,311.04,713.87,5.05,21.83,7.80,37.20,16.50,-10.95,31.38,9.974,
07/02/2025,12:21:17.25,-760.25,276.86,636.23,-6.18,27.78,8.33,35.70,16.50,-13.50,31.58,9.974,
07/02/2025,12:21:17.35,-721.68,309.57,561.04,-5.76,50.80,-3.92,34.95,15.75,-15.30,31.24,9.974,
07/02/2025,12:21:17.45,-813.48,298.34,491.21,-2.99,45.55,-14.52,36.30,15.45,-19.50,31.48,9.974,
07/02/2025,12:21:17.55,-883.79,236.82,428.22,-13.73,44.08,-2.66,36.30,17.10,-19.80,31.53,9.974,
07/02/2025,12:21:17.65,-866.70,269.53,423.34,-9.36,35.18,-7.99,37.50,17.55,-25.20,31.24,9.974,
07/02/2025,12:21:17.75,-900.39,271.00,429.69,3.13,15.75,0.54,37.05,17.10,-25.35,31.38,9.970,
07/02/2025,12:21:17.85,-867.68,265.63,354.00,-0.14,5.76,3.25,36.60,15.90,-26.10,31.24,9.970,
07/02/2025,12:21:17.95,-862.30,269.53,326.66,-7.95,-1.90,-0.35,35.55,17.40,-25.65,31.53,9.970,
07/02/2025,12:21:18.06,-910.16,274.41,334.47,-24.37,11.69,-15.37,36.30,16.20,-26.40,31.58,9.970,
07/02/2025,12:21:18.16,-903.81,273.44,341.31,-1.40,-7.84,2.97,36.30,17.10,-24.60,31.67,9.971,
07/02/2025,12:21:18.26,-474.61,286.62,248.05,-57.36,-19.94,-17.13,35.40,16.05,-24.0,31.67,9.971,
07/02/2025,12:21:18.36,-951.66,265.14,429.69,3.31,-4.87,-1.05,37.05,15.45,-22.35,31.24,9.971,
07/02/2025,12:21:18.46,-922.85,420.90,472.17,41.11,1.44,-2.32,37.20,14.85,-22.95,31.58,9.971,
07/02/2025,12:21:18.56,-919.92,233.40,292.48,4.93,6.18,15.60,37.05,15.15,-26.10,31.34,9.971,
07/02/2025,12:21:18.66,-918.46,280.76,321.29,-4.92,15.29,-0.64,36.30,16.65,-24.60,31.48,9.971,
07/02/2025,12:21:18.76,-975.10,265.63,251.46,-16.37,12.41,3.92,37.20,14.10,-25.50,31.38,9.971,
07/02/2025,12:21:18.86,-934.57,210.94,301.76,-17.24,3.21,-4.19,37.80,14.40,-27.90,31.72,9.971,
07/02/2025,12:21:18.96,-869.63,213.87,304.20,-6.21,1.58,-6.05,37.95,15.75,-25.20,31.19,9.972,
07/02/2025,12:21:19.06,-915.53,200.68,324.71,-5.02,-6.66,-3.27,37.80,16.65,-23.85,31.67,9.968,
07/02/2025,12:21:19.16,-963.38,170.90,304.69,-6.13,-6.24,5.28,38.10,16.65,-22.80,31.38,9.968,
07/02/2025,12:21:19.26,-910.64,186.52,290.04,-13.02,-20.12,2.22,38.85,15.45,-22.35,31.86,9.968,
07/02/2025,12:21:19.36,-906.74,190.92,325.20,23.81,-22.05,0.69,36.60,16.20,-20.25,31.38,9.968,
07/02/2025,12:21:19.47,-896.97,134.28,491.21,13.60,-72.20,5.94,38.25,14.55,-18.90,31.67,9.968,
07/02/2025,12:21:19.57,-856.45,331.54,546.39,27.83,-78.67,42.0,36.30,16.20,-16.50,31.53,9.968,
07/02/2025,12:21:19.67,-749.51,305.66,584.96,-2.50,-18.22,9.03,36.0,17.55,-15.30,31.72,9.968,
07/02/2025,12:21:19.77,-778.32,315.43,590.82,0.88,-1.25,5.65,35.55,17.10,-13.95,31.38,9.968,
07/02/2025,12:21:19.87,-731.45,316.89,602.54,-4.53,9.48,0.41,35.55,17.40,-14.40,31.72,9.969,
07/02/2025,12:21:19.97,-731.45,329.59,551.76,-0.70,29.56,16.05,34.35,19.35,-15.45,31.58,9.969,
07/02/2025,12:21:20.07,-804.69,425.29,499.02,-24.45,95.29,-21.70,34.35,17.40,-20.55,31.72,9.969,
07/02/2025,12:21:20.17,-930.66,287.60,359.38,-5.60,44.67,18.91,34.20,18.0,-22.95,31.86,9.969,
07/02/2025,12:21:20.27,-896.97,331.54,250.98,-17.19,23.40,21.99,34.05,19.35,-25.35,31.72,9.969,
07/02/2025,12:21:20.37,-896.00,325.20,306.64,0.48,1.85,-6.65,32.85,20.10,-27.15,31.77,9.969,
07/02/2025,12:21:20.47,-893.07,302.73,261.72,-0.85,7.27,-15.40,34.95,18.75,-25.50,31.86,9.966,
07/02/2025,12:21:20.57,-957.03,321.78,250.0,5.90,15.50,-9.76,33.45,19.20,-26.25,31.67,9.966,
07/02/2025,12:21:20.67,-1006.84,263.67,240.23,1.27,6.58,3.83,33.45,19.50,-26.25,31.72,9.966,
07/02/2025,12:21:20.78,-938.96,300.29,262.21,12.69,3.38,0.60,34.35,18.60,-28.65,31.67,9.966,
07/02/2025,12:21:20.88,-960.45,290.53,235.35,4.99,11.65,-5.21,34.05,19.35,-28.20,32.01,9.966,
07/02/2025,12:21:20.98,-949.71,307.62,186.52,5.74,14.22,3.26,34.05,18.15,-29.70,31.77,9.966,
07/02/2025,12:21:21.08,-931.64,317.38,233.40,21.80,4.88,2.34,33.15,17.25,-31.35,31.91,9.966,
07/02/2025,12:21:21.18,-963.38,282.23,187.01,6.09,9.76,-1.66,34.35,17.10,-32.70,32.01,9.966,
07/02/2025,12:21:21.28,-958.01,339.36,133.79,5.43,15.63,0.17,33.60,17.10,-35.55,31.86,9.967,
07/02/2025,12:21:21.38,-924.32,315.92,121.09,-1.84,9.80,10.45,31.65,16.05,-35.10,32.01,9.967,
07/02/2025,12:21:21.48,-885.25,282.23,120.61,-1.63,-5.26,-8.73,32.40,16.50,-34.65,31.91,9.967,
07/02/2025,12:21:21.58,-874.51,301.27,133.79,1.40,-17.27,-4.50,34.35,17.40,-34.50,31.91,9.967,
07/02/2025,12:21:21.68,-957.03,245.61,208.98,-5.51,-45.82,-20.63,34.80,15.45,-31.95,31.86,9.967,
07/02/2025,12:21:21.78,-955.57,274.41,305.18,-8.93,-27.75,-14.63,37.50,15.75,-31.05,32.01,9.964,
07/02/2025,12:21:21.88,-923.83,286.62,302.73,-8.01,-14.27,-14.01,36.75,15.30,-27.0,31.77,9.964,
07/02/2025,12:21:21.98,-906.25,256.84,358.89,-18.91,-10.75,-11.45,36.60,13.20,-25.35,31.86,9.964,
07/02/2025,12:21:22.09,-879.39,220.21,436.04,-16.46,-31.86,-11.08,37.80,12.75,-23.85,31.91,9.964,
07/02/2025,12:21:22.19,-926.76,134.28,433.11,-25.50,-7.62,3.15,38.25,14.85,-19.65,32.20,9.964,
07/02/2025,12:21:22.29,-1004.88,190.92,442.38,-14.56,-0.86,16.90,39.0,14.85,-18.15,31.86,9.964,
07/02/2025,12:21:22.39,-929.20,170.90,359.86,-26.45,11.34,-7.61,38.70,14.85,-16.80,32.06,9.964,
07/02/2025,12:21:22.49,-915.04,120.12,424.32,1.14,5.44,-6.08,39.0,14.85,-17.55,31.86,9.964,
07/02/2025,12:21:22.59,-926.27,84.96,362.79,-17.18,20.07,-7.89,39.60,12.45,-19.80,32.25,9.965,
07/02/2025,12:21:22.69,-913.09,92.29,389.16,1.44,-3.48,-1.82,40.35,11.25,-19.50,32.01,9.965,
07/02/2025,12:21:22.79,-812.01,56.64,479.00,23.01,-23.48,6.57,40.20,13.05,-17.10,32.06,9.965,
07/02/2025,12:21:22.89,-951.66,44.43,375.98,-6.63,-10.18,7.28,40.20,11.85,-18.60,32.10,9.965,
07/02/2025,12:21:22.99,-916.99,112.30,402.34,10.49,-30.81,22.95,38.85,12.75,-16.50,32.20,9.965,
07/02/2025,12:21:23.09,-887.70,139.65,519.53,-1.04,-19.93,17.44,38.55,15.90,-15.45,32.25,9.965,
07/02/2025,12:21:23.19,-854.98,176.76,463.38,6.71,0.67,-2.39,37.50,13.80,-14.25,32.20,9.962,
07/02/2025,12:21:23.29,-871.09,176.27,494.63,-7.42,4.15,-1.68,37.80,16.20,-14.55,32.10,9.962,
07/02/2025,12:21:23.39,-847.66,230.96,566.41,-1.44,1.68,4.16,38.55,17.10,-13.65,32.20,9.962,
07/02/2025,12:21:23.50,-881.35,146.00,443.36,0.11,-8.49,9.83,38.25,18.45,-11.25,32.01,9.962,
07/02/2025,12:21:23.60,-865.23,180.66,490.72,-0.09,15.11,-1.15,38.70,17.25,-13.05,32.06,9.962,
07/02/2025,12:21:23.70,-859.38,205.57,449.71,0.28,25.27,-2.35,38.25,18.75,-12.75,32.29,9.962,
07/02/2025,12:21:23.80,-883.79,160.64,410.16,-4.02,6.18,8.34,38.85,18.15,-13.65,32.44,9.963,
07/02/2025,12:21:23.90,-875.49,212.89,428.22,9.44,18.09,1.74,38.85,17.85,-15.15,32.29,9.963,
07/02/2025,12:21:24.00,-937.99,173.83,392.58,-8.17,18.36,8.36,37.35,19.65,-15.45,32.25,9.963,
07/02/2025,12:21:24.10,-935.06,186.04,436.52,-1.85,-14.0,-0.35,37.35,21.30,-11.85,32.39,9.963,
07/02/2025,12:21:24.20,-899.90,175.29,421.39,3.26,-11.73,11.69,37.50,22.20,-8.70,32.44,9.963,
07/02/2025,12:21:24.30,-929.20,245.61,445.31,-10.45,3.89,11.05,37.05,22.35,-8.85,32.20,9.963,
07/02/2025,12:21:24.40,-917.97,207.52,371.58,-4.98,0.69,-1.16,35.70,23.70,-5.10,32.10,9.963,
07/02/2025,12:21:24.50,-912.11,212.89,417.48,-2.96,3.37,20.40,36.45,23.70,-6.15,32.10,9.960,
07/02/2025,12:21:24.60,-905.76,222.66,366.21,9.73,-4.73,-3.21,35.55,26.70,-3.0,32.25,9.960,
07/02/2025,12:21:24.70,-807.13,290.04,414.55,-8.37,-47.34,-2.53,35.10,27.0,-9.30,32.39,9.960,
07/02/2025,12:21:24.81,-814.94,197.27,405.76,29.08,11.38,11.89,35.55,22.80,-9.60,32.25,9.961,
07/02/2025,12:21:24.91,-727.05,258.30,634.77,-19.79,13.63,-36.96,35.70,22.95,-14.25,32.10,9.961,
07/02/2025,12:21:25.01,-874.02,238.77,561.52,8.26,27.65,8.18,35.40,22.20,-16.80,32.39,9.961,
07/02/2025,12:21:25.11,-548.83,232.42,274.41,54.80,-250.14,40.92,35.85,22.35,-18.75,32.29,9.961,
07/02/2025,12:21:25.21,-801.76,262.70,554.20,-7.89,23.03,-24.10,34.95,20.25,-12.75,32.20,9.961,
07/02/2025,12:21:25.31,-846.68,248.05,515.63,9.30,44.10,-8.76,38.10,18.60,-15.45,32.39,9.961,
07/02/2025,12:21:25.41,-922.36,256.35,479.49,25.35,6.84,-7.86,38.70,18.45,-18.90,32.20,9.961,
07/02/2025,12:21:25.51,-868.16,286.13,399.90,31.01,-40.90,-27.27,38.25,18.75,-18.60,32.39,9.961,
07/02/2025,12:21:25.61,-833.01,166.02,359.38,-4.96,-0.34,-12.55,39.30,16.20,-18.45,32.29,9.962,
07/02/2025,12:21:25.71,-886.72,224.12,577.64,4.78,-32.15,2.69,41.25,15.75,-16.80,32.25,9.962,
07/02/2025,12:21:25.81,-832.03,175.78,537.60,11.87,34.11,8.21,39.30,17.10,-12.90,32.44,9.959,
07/02/2025,12:21:25.91,-910.64,202.64,479.00,3.36,-11.79,-20.73,39.75,18.45,-11.25,32.25,9.959,
07/02/2025,12:21:26.01,-817.38,158.69,500.98,-15.02,-26.16,35.85,40.20,20.70,-12.30,32.25,9.959,
07/02/2025,12:21:26.11,-848.14,178.22,565.43,-8.10,-38.08,6.74,38.70,20.70,-6.90,32.39,9.959,
07/02/2025,12:21:26.22,-797.36,353.03,539.55,1.83,-246.56,-37.18,34.80,20.55,3.0,32.25,9.959,
07/02/2025,12:21:26.32,-801.76,88.87,934.57,-5.32,193.87,-68.92,36.60,18.15,0.15,32.25,9.959,
07/02/2025,12:21:26.42,-1027.34,-435.55,981.93,37.62,-47.96,-17.56,37.50,14.85,-7.65,32.20,9.959,
07/02/2025,12:21:26.52,-630.86,163.09,780.27,-20.97,52.34,-6.85,38.85,12.75,-7.80,32.39,9.960,
07/02/2025,12:21:26.62,-939.45,215.33,623.05,12.46,146.34,7.55,42.15,12.0,-13.65,32.25,9.960,
07/02/2025,12:21:26.72,-939.45,142.09,319.34,-3.05,204.06,14.23,42.0,13.35,-24.0,32.39,9.960,
07/02/2025,12:21:26.82,-1006.35,190.43,36.13,17.31,199.20,-19.76,36.45,10.65,-40.95,32.25,9.960,
07/02/2025,12:21:26.92,-901.86,101.07,-252.93,13.79,79.12,-45.40,31.65,7.65,-51.45,32.39,9.960,
07/02/2025,12:21:27.02,-903.32,-81.54,-530.76,-7.62,75.23,-23.60,27.30,5.55,-54.90,32.39,9.960,
07/02/2025,12:21:27.12,-877.93,-6.84,-488.28,2.36,3.63,13.53,24.75,4.80,-57.15,32.58,9.957,
07/02/2025,12:21:27.22,-835.94,43.46,-521.00,-3.24,-22.96,23.20,22.80,5.85,-57.45,32.29,9.957,
07/02/2025,12:21:27.32,-772.46,45.41,-386.72,-6.49,-135.47,55.13,25.50,7.05,-55.35,32.44,9.957,
07/02/2025,12:21:27.42,-944.82,159.67,-170.41,-27.38,-143.75,16.73,31.80,9.0,-47.25,32.63,9.958,
07/02/2025,12:21:27.53,-1027.83,57.13,86.91,-23.88,-188.18,32.40,38.70,11.40,-32.10,32.73,9.958,
07/02/2025,12:21:27.63,-861.82,249.51,656.74,26.24,-193.55,78.62,37.20,15.75,-14.55,32.63,9.958,
07/02/2025,12:21:27.73,-541.99,319.82,872.56,-4.20,-137.98,14.87,32.55,20.10,-3.75,32.63,9.958,
07/02/2025,12:21:27.83,-370.61,454.10,899.90,11.05,-31.97,42.84,26.55,22.05,2.25,32.63,9.958,
07/02/2025,12:21:27.93,-317.38,434.08,841.80,-18.64,2.57,3.56,23.40,24.60,4.35,32.44,9.958,
07/02/2025,12:21:28.03,-284.18,303.71,855.47,0.03,-35.04,2.50,22.65,23.70,5.10,32.73,9.958,
07/02/2025,12:21:28.13,-280.27,353.03,989.26,-13.27,-68.37,-0.69,19.65,23.40,7.65,32.58,9.959,
07/02/2025,12:21:28.23,-28.81,439.45,1031.74,-4.62,-65.41,-14.82,17.40,23.40,8.70,32.63,9.959,
07/02/2025,12:21:28.33,59.57,397.46,1087.89,-3.54,-88.92,14.65,15.0,23.55,11.10,32.63,9.959,
07/02/2025,12:21:28.43,175.29,392.09,924.80,44.73,-139.41,9.25,7.20,25.05,12.60,32.25,9.959,
07/02/2025,12:21:28.53,314.45,419.43,789.06,48.83,-114.27,0.71,1.05,28.05,8.70,32.29,9.956,
07/02/2025,12:21:28.63,691.89,502.44,537.60,4.34,-119.40,43.52,-6.45,28.95,4.20,32.73,9.956,
07/02/2025,12:21:28.73,639.16,492.19,553.22,10.05,-16.98,-20.85,-8.85,29.55,0.60,32.39,9.956,
07/02/2025,12:21:28.84,650.39,565.92,564.94,-15.60,12.18,-20.92,-9.60,30.75,0.30,32.44,9.956,
07/02/2025,12:21:28.94,636.23,591.80,642.58,-7.76,-26.25,-1.51,-8.10,30.30,2.85,32.58,9.957,
07/02/2025,12:21:29.04,662.11,516.11,520.51,-1.15,-12.91,11.0,-9.45,29.40,1.20,32.53,9.957,
07/02/2025,12:21:29.14,680.66,527.83,507.32,-1.60,36.89,-8.39,-10.05,28.35,1.80,32.39,9.957,
07/02/2025,12:21:29.24,552.25,545.41,691.41,-26.06,82.66,-21.81,-4.95,28.50,3.75,32.39,9.957,
07/02/2025,12:21:29.34,385.74,532.23,720.70,-26.53,67.73,-12.27,-1.05,29.10,6.45,32.39,9.957,
07/02/2025,12:21:29.44,331.54,400.88,789.55,-37.18,85.69,-33.34,2.55,25.65,9.45,32.25,9.957,
07/02/2025,12:21:29.54,222.66,474.61,916.02,20.41,-61.76,-8.79,5.55,25.65,10.20,32.39,9.957,
07/02/2025,12:21:29.64,486.33,511.23,736.33,14.36,-97.56,4.73,0.15,27.0,9.60,32.39,9.957,
07/02/2025,12:21:29.74,577.64,522.46,620.61,11.55,-66.08,8.51,-1.65,26.25,8.55,32.25,9.958,
07/02/2025,12:21:29.84,614.75,496.58,623.54,-11.66,-15.92,5.24,-5.10,26.85,8.70,32.44,9.955,
07/02/2025,12:21:29.94,637.70,514.65,620.61,-0.98,-3.97,-1.29,-6.30,27.15,9.0,32.39,9.955,
07/02/2025,12:21:30.04,612.79,490.23,622.56,-8.20,10.15,-3.51,-5.70,25.50,8.85,32.39,9.955,
07/02/2025,12:21:30.15,580.08,480.96,665.53,-4.55,21.24,-8.47,-4.65,25.50,10.05,32.10,9.955,
07/02/2025,12:21:30.25,432.13,478.52,735.35,-24.21,144.94,-15.73,-0.30,26.40,10.95,32.44,9.955,
07/02/2025,12:21:30.35,90.33,416.99,839.84,-44.66,249.55,-29.57,8.85,22.95,12.30,32.10,9.956,
07/02/2025,12:21:30.45,-111.82,466.80,968.26,-32.70,19.51,4.47,18.60,22.95,8.70,32.39,9.956,
07/02/2025,12:21:30.55,-192.87,354.00,979.49,-13.47,6.11,-20.23,20.85,20.25,10.20,32.25,9.956,
07/02/2025,12:21:30.65,-25.39,290.04,929.69,-10.71,-20.07,-6.18,19.50,20.85,13.20,32.39,9.956,
07/02/2025,12:21:30.75,1.46,340.33,938.48,-14.85,-13.97,-4.64,18.0,20.10,13.20,32.25,9.956,
07/02/2025,12:21:30.85,-19.04,420.90,920.90,6.76,4.91,4.64,17.40,19.20,13.50,32.58,9.956,
07/02/2025,12:21:30.95,132.32,333.98,948.73,-1.92,56.90,5.58,17.70,20.85,14.40,32.25,9.956,
07/02/2025,12:21:31.05,-13.67,375.98,929.69,4.71,9.13,15.11,20.55,21.30,11.10,32.39,9.956,
07/02/2025,12:21:31.15,-51.76,398.93,975.10,-1.73,-4.82,1.53,20.10,21.90,10.50,32.58,9.954,
07/02/2025,12:21:31.25,-50.78,346.68,891.60,7.26,-3.11,-1.60,21.60,21.0,11.25,32.53,9.954,
07/02/2025,12:21:31.35,-139.65,402.83,958.98,1.34,37.52,-6.15,22.35,20.25,9.45,32.25,9.954,
07/02/2025,12:21:31.46,-159.18,429.20,1035.64,11.25,0.18,9.50,24.0,21.30,8.10,32.63,9.954,
07/02/2025,12:21:31.56,-357.42,462.40,1062.50,-6.37,61.80,-2.84,24.90,20.70,8.40,32.39,9.954,
07/02/2025,12:21:31.66,-196.78,358.89,878.42,-6.02,14.16,-0.22,25.80,20.10,7.80,32.63,9.954,
07/02/2025,12:21:31.76,-204.10,380.86,952.64,-11.60,-17.58,12.60,25.50,21.30,7.80,32.63,9.955,
07/02/2025,12:21:31.86,-216.80,347.17,984.86,4.97,-9.33,4.15,25.05,22.35,9.60,32.53,9.955,
07/02/2025,12:21:31.96,-208.98,341.80,900.88,-6.45,-19.99,13.59,24.0,23.25,10.35,32.58,9.955,
07/02/2025,12:21:32.06,-129.39,330.08,849.61,-23.37,4.32,7.65,22.05,22.80,11.85,32.39,9.955,
07/02/2025,12:21:32.16,-56.15,299.80,994.63,-33.27,6.08,1.42,21.75,22.80,13.95,32.39,9.955,
07/02/2025,12:21:32.26,-185.06,286.13,1034.18,-30.41,15.13,4.89,21.90,20.70,13.80,32.39,9.955,
07/02/2025,12:21:32.36,-190.43,313.48,955.57,25.03,-33.15,39.60,19.80,18.90,13.20,32.63,9.955,
07/02/2025,12:21:32.46,-43.46,267.58,1001.46,-16.37,-6.62,42.24,16.65,21.90,12.0,32.58,9.953,
07/02/2025,12:21:32.56,-26.37,225.59,980.96,-14.79,13.20,50.90,14.85,22.20,13.05,32.58,9.953,
07/02/2025,12:21:32.66,-76.17,267.58,1029.30,-17.10,14.95,73.09,12.45,22.05,14.40,32.29,9.953,
07/02/2025,12:21:32.77,72.75,189.94,971.19,-14.74,21.25,25.68,11.25,21.60,15.90,32.53,9.953,
07/02/2025,12:21:32.87,-75.68,232.91,1060.55,-5.29,37.36,9.61,11.55,21.90,15.30,32.29,9.953,
07/02/2025,12:21:32.97,-153.32,202.15,957.52,-3.85,41.88,17.34,12.90,21.45,15.30,32.58,9.953,
07/02/2025,12:21:33.07,-256.35,122.07,843.26,10.26,5.05,2.10,15.45,22.05,13.95,32.39,9.953,
07/02/2025,12:21:33.17,-247.56,171.39,1063.96,-19.80,14.13,-5.93,13.65,22.65,14.55,32.73,9.954,
07/02/2025,12:21:33.27,-371.09,151.37,972.66,3.02,85.13,1.91,17.25,22.80,13.20,32.63,9.954,
07/02/2025,12:21:33.37,-422.36,196.29,918.46,4.26,2.74,0.30,19.35,22.95,10.95,32.29,9.954,
07/02/2025,12:21:33.47,-395.51,153.81,782.71,4.32,33.43,-7.37,20.40,25.35,11.25,32.58,9.954,
07/02/2025,12:21:33.57,-595.21,218.26,869.63,-17.21,78.46,48.66,22.50,24.0,7.35,32.39,9.954,
07/02/2025,12:21:33.67,-530.27,206.54,831.54,-20.88,33.05,10.87,25.95,24.90,5.85,32.73,9.954,
07/02/2025,12:21:33.77,-672.85,187.50,749.02,-3.56,-8.81,5.81,24.90,24.15,5.10,32.77,9.952,
07/02/2025,12:21:33.87,-597.66,210.94,804.20,-9.67,-21.37,-3.59,24.90,24.90,6.45,32.73,9.952,
07/02/2025,12:21:33.97,-573.24,180.18,759.28,19.97,-128.51,-5.43,23.40,23.40,9.0,32.77,9.952,
07/02/2025,12:21:34.08,-435.55,216.80,954.59,-11.45,-70.72,-12.91,17.40,24.90,13.05,32.77,9.952,
07/02/2025,12:21:34.18,-351.56,195.31,962.89,1.24,-13.50,4.67,15.15,24.15,14.85,32.82,9.952,
07/02/2025,12:21:34.28,-336.91,150.39,906.74,-3.44,-7.40,4.12,14.10,23.70,15.60,33.06,9.952,
07/02/2025,12:21:34.38,-303.22,160.64,994.63,-2.81,2.53,1.80,14.70,26.25,14.40,32.63,9.952,
07/02/2025,12:21:34.48,-303.71,185.55,892.58,18.19,-0.18,0.74,15.75,26.25,14.70,32.82,9.953,
07/02/2025,12:21:34.58,-346.68,151.37,927.73,-0.84,-13.37,2.05,13.35,24.60,13.80,32.73,9.953,
07/02/2025,12:21:34.68,-288.09,178.71,953.61,-1.40,-8.23,0.78,13.95,25.50,15.90,32.73,9.953,
07/02/2025,12:21:34.78,-304.69,128.42,1059.57,-37.24,-18.26,-4.53,15.15,23.40,17.10,32.63,9.953,
07/02/2025,12:21:34.88,-416.02,364.26,1084.47,10.98,0.53,9.34,13.65,24.15,16.80,33.06,9.953,
07/02/2025,12:21:34.98,-288.57,86.43,994.14,-14.22,-2.66,-3.17,11.85,23.40,18.15,32.77,9.953,
07/02/2025,12:21:35.08,-260.25,85.45,989.26,5.59,-22.70,0.13,13.20,22.80,19.05,32.82,9.951,
07/02/2025,12:21:35.18,-218.26,98.63,998.54,-8.62,3.19,0.46,11.85,21.0,18.15,32.82,9.951,
07/02/2025,12:21:35.28,-220.21,81.54,1002.93,-0.34,-2.54,5.24,12.15,21.45,20.10,32.73,9.951,
07/02/2025,12:21:35.39,-229.00,72.27,1002.44,-4.82,5.24,-3.69,10.35,21.90,20.10,32.73,9.951,
07/02/2025,12:21:35.49,-240.72,87.89,991.70,6.20,4.08,-2.91,11.70,20.55,18.75,32.73,9.951,
07/02/2025,12:21:35.59,-218.26,96.68,983.40,4.80,-9.67,2.73,11.70,21.60,18.75,32.58,9.951,
07/02/2025,12:21:35.69,-219.73,77.64,1010.25,4.89,-1.01,-0.40,11.10,21.45,21.45,32.63,9.952,
07/02/2025,12:21:35.79,-208.98,87.40,981.93,-6.34,1.98,-3.21,11.55,22.65,20.10,32.73,9.952,
07/02/2025,12:21:35.89,-214.84,86.91,964.36,-2.38,-0.88,-0.92,9.75,22.35,20.25,32.58,9.952,
07/02/2025,12:21:35.99,-235.84,60.06,1013.67,-8.43,13.95,-3.18,11.10,22.65,21.45,32.58,9.952,
07/02/2025,12:21:36.09,-279.30,11.72,895.51,-9.86,20.41,14.12,12.60,22.95,19.35,32.39,9.952,
07/02/2025,12:21:36.19,-265.14,75.68,917.48,-3.66,-9.56,-8.40,11.10,22.20,19.65,32.63,9.952,
07/02/2025,12:21:36.29,353.03,-1545.41,1035.64,62.42,26.59,-95.96,10.20,20.55,21.0,32.44,9.952,
07/02/2025,12:21:36.39,-252.93,142.58,1005.37,21.82,-6.05,-9.07,12.60,22.20,19.35,32.63,9.950,
07/02/2025,12:21:36.49,-200.20,60.55,985.35,-15.43,-23.88,21.39,10.05,22.95,18.90,32.44,9.950,
07/02/2025,12:21:36.59,-191.89,120.12,1001.95,-0.01,-4.83,0.37,8.10,23.70,20.40,32.82,9.950,
07/02/2025,12:21:36.70,-190.43,127.44,1007.32,21.53,8.66,4.82,8.10,22.65,20.10,32.63,9.950,
07/02/2025,12:21:36.80,-187.99,114.75,970.70,-8.34,-15.38,0.63,9.60,23.70,18.90,32.82,9.950,
07/02/2025,12:21:36.90,-216.31,127.93,971.68,6.75,-10.90,10.79,7.20,24.0,18.45,32.73,9.951,
07/02/2025,12:21:37.00,-146.00,136.23,1006.35,4.33,12.12,-24.68,6.60,24.15,18.15,32.77,9.951,
07/02/2025,12:21:37.10,-150.39,140.14,965.33,6.25,-20.28,19.13,8.25,24.75,19.50,32.63,9.951,
07/02/2025,12:21:37.20,-155.76,210.45,1003.42,-14.78,-8.11,13.39,4.80,24.90,18.90,32.73,9.951,
07/02/2025,12:21:37.30,-164.55,89.36,1010.74,-2.96,8.79,-19.47,7.20,23.55,19.05,32.77,9.951,
07/02/2025,12:21:37.40,-132.32,59.57,1036.13,-4.79,-20.34,26.18,6.75,23.25,18.75,32.77,9.951,
07/02/2025,12:21:37.50,-109.86,98.14,1005.86,-7.16,2.44,0.80,4.65,23.25,20.25,32.77,9.951,
07/02/2025,12:21:37.60,-112.79,80.57,1005.86,21.48,10.96,-57.11,6.75,23.25,20.25,32.97,9.951,
07/02/2025,12:21:37.70,-1821.29,1999.94,-1124.51,250.13,250.13,-152.03,7.35,22.95,20.40,32.82,9.949,
07/02/2025,12:21:37.80,-171.88,60.55,1019.04,-24.74,6.77,2.05,7.20,20.85,22.35,32.53,9.949,
07/02/2025,12:21:37.90,-188.48,17.58,1013.67,2.21,13.77,1.99,6.75,20.55,23.10,32.82,9.949,
07/02/2025,12:21:38.01,-170.90,-10.25,1027.83,-0.27,-9.87,17.69,7.50,20.10,24.30,32.92,9.950,
07/02/2025,12:21:38.11,-223.14,-26.37,782.71,28.47,5.19,19.0,4.80,19.95,22.20,32.92,9.950,
07/02/2025,12:21:38.21,-165.04,32.71,962.40,0.73,1.15,1.62,6.0,18.60,21.30,32.77,9.950,
07/02/2025,12:21:38.31,-220.21,75.68,1047.85,10.83,53.49,1.52,6.60,19.95,22.20,32.77,9.950,
07/02/2025,12:21:38.41,-553.22,103.52,886.23,12.99,175.37,97.89,11.85,19.50,21.45,32.73,9.950,
07/02/2025,12:21:38.51,-470.70,-17.09,941.89,-50.85,99.02,50.40,17.40,19.50,18.60,32.77,9.950,
07/02/2025,12:21:38.61,-612.30,1.46,797.36,54.16,45.53,44.17,17.85,20.25,17.10,32.73,9.950,
07/02/2025,12:21:38.71,-604.98,76.66,732.91,-2.73,23.18,45.45,17.40,23.70,11.25,32.73,9.950,
07/02/2025,12:21:38.81,-918.95,85.45,932.62,-42.63,29.98,57.42,14.40,25.65,13.50,32.82,9.950,
07/02/2025,12:21:38.91,-721.19,348.14,680.18,9.69,-31.68,18.04,15.45,23.55,13.95,32.53,9.951,
07/02/2025,12:21:39.01,-488.28,261.72,694.82,6.23,-84.99,82.58,7.80,26.40,13.05,32.73,9.948,
07/02/2025,12:21:39.11,-562.99,451.66,815.92,-122.39,72.73,82.21,5.70,25.50,11.85,32.73,9.949,
07/02/2025,12:21:39.21,-607.91,181.64,871.58,-25.79,-3.80,31.56,5.85,20.25,18.90,32.58,9.949,
07/02/2025,12:21:39.32,-575.20,361.82,804.20,19.38,-71.25,45.01,1.20,18.15,18.45,32.44,9.949,
07/02/2025,12:21:39.42,-417.48,394.04,856.45,120.92,-129.89,63.75,-8.25,24.0,12.60,32.82,9.949,
07/02/2025,12:21:39.52,169.92,636.72,-41.50,110.0,29.83,-3.97,-17.10,28.05,3.15,32.73,9.949,
07/02/2025,12:21:39.62,-152.83,622.07,795.41,20.72,-56.98,12.94,-17.85,29.55,-1.35,32.58,9.949,
07/02/2025,12:21:39.72,23.44,742.68,593.26,48.34,5.28,27.71,-19.35,32.25,-7.20,32.63,9.949,
07/02/2025,12:21:39.82,-297.36,965.82,1016.60,-11.37,-11.88,-5.97,-19.50,30.45,-8.85,32.63,9.949,
07/02/2025,12:21:39.92,137.21,1026.37,627.93,84.72,-83.88,79.13,-23.55,29.70,-11.40,32.73,9.949,
07/02/2025,12:21:40.02,182.62,920.41,396.97,99.89,-106.62,135.24,-29.70,26.10,-21.90,32.63,9.950,
07/02/2025,12:21:40.12,566.41,722.66,-22.95,250.13,-164.69,223.23,-37.05,13.50,-38.10,32.77,9.950,
07/02/2025,12:21:40.22,1103.03,393.55,-368.16,250.13,1.56,123.65,-37.95,-19.50,-51.45,32.82,9.948,
07/02/2025,12:21:40.32,1013.67,175.29,-10.74,127.60,107.13,-34.69,-37.20,-36.90,-44.10,32.53,9.948,
07/02/2025,12:21:40.42,875.98,-36.13,-589.36,87.65,-62.15,24.14,-38.55,-40.50,-34.05,32.44,9.948,
07/02/2025,12:21:40.53,999.51,-253.91,-568.85,107.38,19.40,14.19,-36.60,-47.40,-23.85,32.39,9.948,
07/02/2025,12:21:40.63,978.03,-726.56,-738.28,-126.38,71.03,-139.64,-41.25,-43.80,-20.10,32.58,9.948,
07/02/2025,12:21:40.73,852.05,-174.80,-282.23,-82.57,37.47,19.66,-41.85,-42.0,-19.80,32.58,9.948,
07/02/2025,12:21:40.83,1199.22,-165.04,-21.97,41.69,144.93,39.13,-41.55,-42.0,-18.0,32.73,9.948,
07/02/2025,12:21:40.93,888.18,-146.97,7.81,62.89,-19.86,-19.40,-39.30,-43.20,-12.15,32.29,9.948,
07/02/2025,12:21:41.03,1032.23,-254.88,-122.56,45.26,58.58,8.56,-37.35,-44.25,-2.70,32.73,9.949,
07/02/2025,12:21:41.13,1407.71,-475.59,123.54,102.24,52.17,-36.05,-37.35,-45.45,-4.80,32.63,9.949,
07/02/2025,12:21:41.23,964.84,-152.83,-127.44,94.79,-21.94,155.47,-35.40,-42.15,4.35,32.77,9.949,
07/02/2025,12:21:41.33,819.34,-671.88,112.79,56.91,68.19,56.73,-27.30,-46.95,5.55,32.63,9.949,
07/02/2025,12:21:41.43,885.74,-671.39,193.36,45.97,139.98,-32.85,-23.40,-44.10,12.75,32.73,9.949,
07/02/2025,12:21:41.53,630.86,-440.43,582.03,28.60,58.47,10.21,-15.90,-42.60,16.35,32.92,9.947,
07/02/2025,12:21:41.63,717.77,-561.04,724.61,18.99,-61.30,84.45,-14.85,-41.40,17.55,32.44,9.947,
07/02/2025,12:21:41.73,812.01,-706.05,343.26,9.25,-65.99,51.43,-16.20,-42.75,16.95,32.73,9.947,
07/02/2025,12:21:41.84,673.34,-580.08,355.96,49.24,-141.08,68.05,-17.70,-42.45,15.15,32.73,9.947,
07/02/2025,12:21:41.94,636.72,-712.89,76.66,18.65,-90.46,77.12,-21.60,-41.85,15.60,32.82,9.947,
07/02/2025,12:21:42.04,543.95,-733.89,130.86,-16.27,-54.67,22.84,-20.40,-43.35,13.50,32.63,9.948,
07/02/2025,12:21:42.14,582.03,-806.15,169.43,-8.59,-35.42,3.84,-23.10,-44.85,12.75,32.73,9.948,
07/02/2025,12:21:42.24,614.75,-760.74,172.36,-11.84,-1.13,-6.33,-24.90,-46.05,11.70,32.73,9.948,
07/02/2025,12:21:42.34,704.10,-807.62,50.78,-35.44,-4.61,32.86,-24.45,-44.85,9.45,32.29,9.948,
07/02/2025,12:21:42.44,19.04,-718.75,-18.55,-202.79,250.13,-23.73,-23.10,-48.30,5.85,32.44,9.948,
07/02/2025,12:21:42.54,493.16,-847.66,-33.20,4.49,-19.68,47.79,-20.85,-50.70,6.90,32.73,9.948,
07/02/2025,12:21:42.64,565.92,-891.11,12.70,16.52,24.89,11.89,-18.30,-51.60,6.75,32.73,9.948,
07/02/2025,12:21:42.74,489.26,-852.54,92.29,9.87,3.21,19.08,-18.75,-50.85,7.80,32.82,9.948,
07/02/2025,12:21:42.84,573.73,-867.68,70.31,4.53,-6.62,8.15,-17.10,-50.25,8.70,32.73,9.946,
07/02/2025,12:21:42.94,435.55,-937.99,99.61,1.80,-17.05,11.90,-16.65,-50.25,8.70,32.73,9.946,
07/02/2025,12:21:43.05,411.62,-896.97,103.03,4.41,-4.0,6.87,-16.95,-50.40,10.35,32.58,9.947,
07/02/2025,12:21:43.15,359.38,-941.89,135.25,9.02,-8.57,9.57,-15.45,-49.65,10.65,32.92,9.947,
07/02/2025,12:21:43.25,385.74,-937.99,117.68,5.24,2.44,7.72,-15.15,-48.30,12.0,32.92,9.947,
07/02/2025,12:21:43.35,418.95,-919.43,1999.94,-146.21,-139.34,-23.69,-14.25,-48.90,11.10,33.06,9.947,
07/02/2025,12:21:43.45,421.39,-950.68,121.58,-4.58,7.08,4.85,-13.65,-48.75,12.0,32.92,9.947,
07/02/2025,12:21:43.55,399.41,-887.70,145.51,-2.89,14.60,-3.21,-12.90,-49.95,10.50,32.82,9.947,
07/02/2025,12:21:43.65,390.14,-904.30,131.84,-0.34,3.44,-0.95,-14.10,-48.0,11.25,33.25,9.947,
07/02/2025,12:21:43.75,446.29,-883.30,114.75,6.09,-3.02,5.66,-13.35,-49.50,10.50,32.97,9.947,
07/02/2025,12:21:43.85,366.21,-880.86,150.39,27.44,4.44,-1.14,-12.75,-48.90,12.15,33.30,9.947,
07/02/2025,12:21:43.95,392.58,-879.39,244.14,2.40,8.03,-9.60,-13.65,-47.55,13.05,33.06,9.948,
07/02/2025,12:21:44.05,399.41,-885.25,134.77,22.16,35.63,2.31,-12.90,-45.60,13.50,33.25,9.946,
07/02/2025,12:21:44.15,354.49,-880.86,269.53,4.40,22.23,5.31,-8.85,-46.50,14.85,33.06,9.946,
07/02/2025,12:21:44.25,360.35,-933.11,300.29,2.38,4.18,3.47,-9.30,-44.85,17.85,32.97,9.946,
07/02/2025,12:21:44.36,335.45,-916.50,307.62,-3.27,-20.98,-3.26,-7.95,-44.70,16.20,33.16,9.946,
07/02/2025,12:21:44.46,379.88,-935.06,272.95,-9.31,-14.43,-3.69,-8.70,-46.20,17.25,33.16,9.946,
07/02/2025,12:21:44.56,360.35,-958.50,283.69,-3.57,10.86,-6.35,-9.45,-45.15,15.15,33.11,9.946,
07/02/2025,12:21:44.66,368.65,-944.82,312.01,-1.95,16.75,-10.22,-8.25,-45.15,15.15,33.11,9.946,
07/02/2025,12:21:44.76,343.26,-899.41,298.83,-2.95,4.21,1.09,-8.25,-46.95,14.70,33.35,9.946,
07/02/2025,12:21:44.86,342.77,-937.50,308.59,-4.97,4.01,-2.85,-8.10,-48.0,14.85,33.30,9.947,
07/02/2025,12:21:44.96,371.58,-808.59,365.72,-11.12,-0.10,-3.71,-8.55,-46.50,15.30,33.06,9.947,
07/02/2025,12:21:45.06,392.58,-867.68,269.53,-3.20,-10.27,3.28,-8.10,-46.80,14.85,33.25,9.947,
07/02/2025,12:21:45.16,349.61,-914.55,279.79,-6.65,-6.23,-0.79,-8.55,-47.55,14.25,33.35,9.947,
07/02/2025,12:21:45.26,355.96,-927.73,245.12,-16.40,-1.52,9.66,-7.95,-46.65,13.95,33.35,9.947,
07/02/2025,12:21:45.36,309.57,-952.64,216.31,-10.26,-4.42,7.92,-8.85,-47.25,13.50,33.25,9.945,
07/02/2025,12:21:45.46,337.89,-934.57,236.82,-1.53,10.76,-0.18,-7.50,-48.60,13.95,33.35,9.945,
07/02/2025,12:21:45.56,310.06,-938.48,227.54,-5.97,-0.72,6.56,-7.20,-48.15,13.65,33.35,9.945,
07/02/2025,12:21:45.67,323.24,-987.79,227.54,5.85,7.0,7.98,-5.85,-50.70,12.0,33.25,9.945,
07/02/2025,12:21:45.77,287.60,-931.64,233.40,4.28,-14.82,-2.20,-5.10,-48.30,14.25,33.35,9.946,
07/02/2025,12:21:45.87,322.27,-943.85,197.75,-2.31,-16.82,9.46,-6.75,-49.65,12.90,33.30,9.946,
07/02/2025,12:21:45.97,313.96,-945.80,190.92,-3.11,-0.12,-0.61,-6.60,-48.75,12.0,33.44,9.946,
07/02/2025,12:21:46.07,296.39,-974.12,236.82,10.83,-19.43,-63.10,-6.75,-48.90,13.65,33.30,9.946,
07/02/2025,12:21:46.17,301.27,-950.20,177.25,1.14,13.89,-1.82,-6.60,-49.20,14.25,33.30,9.946,
07/02/2025,12:21:46.27,278.81,-921.88,266.11,-3.85,23.21,-6.53,-4.95,-48.90,13.20,33.49,9.946,
07/02/2025,12:21:46.37,313.96,-947.27,239.26,-0.98,7.66,3.82,-6.0,-49.65,12.15,33.16,9.946,
07/02/2025,12:21:46.47,309.08,-897.95,269.53,0.83,-10.25,6.99,-5.85,-49.50,13.50,33.64,9.946,
07/02/2025,12:21:46.57,290.04,-959.96,230.96,-3.92,-10.39,5.64,-5.55,-49.95,13.05,33.59,9.944,
07/02/2025,12:21:46.67,295.90,-951.66,206.05,-1.94,-7.73,1.92,-4.95,-48.90,13.20,33.59,9.945,
07/02/2025,12:21:46.77,263.67,-956.05,222.66,1.89,-5.62,3.85,-5.55,-49.20,12.75,33.44,9.945,
07/02/2025,12:21:46.88,280.27,-958.50,208.01,-0.33,-5.52,1.82,-6.75,-49.65,12.15,33.11,9.945,
07/02/2025,12:21:46.98,269.53,-956.54,196.29,-0.45,-7.25,0.36,-6.45,-50.10,12.90,33.44,9.945,
07/02/2025,12:21:47.08,284.18,-977.54,216.31,-3.18,-9.61,4.27,-5.55,-48.75,13.50,33.68,9.945,
07/02/2025,12:21:47.18,256.84,-936.52,192.87,-2.18,-6.11,3.98,-5.55,-49.50,12.30,33.35,9.945,
07/02/2025,12:21:47.28,281.25,-976.56,208.50,-1.89,-1.88,-2.53,-7.20,-49.65,13.95,33.59,9.945,
