rtcDate,rtcTime,aX,aY,aZ,gX,gY,gZ,mX,mY,mZ,imu_degC,output_Hz,
07/02/2025,12:21:49.02,984.86,-459.47,-212.89,-45.69,-5.85,-44.59,-43.95,-33.75,-2.10,33.11,100.0,
07/02/2025,12:21:49.13,985.84,-394.04,-332.52,-83.21,119.25,-18.33,-43.35,-34.65,0.15,33.25,18.182,
07/02/2025,12:21:49.23,786.13,-369.14,94.73,-157.05,250.13,-98.04,-36.75,-37.95,7.65,33.11,14.286,
07/02/2025,12:21:49.33,664.06,73.73,1128.91,-89.79,241.60,-174.01,-24.75,-36.60,19.80,33.25,12.903,
07/02/2025,12:21:49.43,633.30,-42.48,696.78,-55.15,45.05,-61.50,-19.05,-35.10,22.80,33.11,12.195,
07/02/2025,12:21:49.53,790.04,-50.78,93.26,-92.68,-63.68,-33.66,-20.10,-38.40,21.15,32.77,11.765,
07/02/2025,12:21:49.63,1073.24,-122.56,882.81,62.18,10.52,25.85,-18.30,-45.15,15.90,33.06,11.475,
07/02/2025,12:21:49.73,695.80,95.70,375.98,137.28,220.36,18.85,-15.0,-43.50,19.50,33.11,11.268,
07/02/2025,12:21:49.83,237.79,-82.03,1115.72,15.33,117.08,18.69,-3.90,-35.55,23.10,33.11,11.111,
07/02/2025,12:21:49.93,131.35,-46.88,1068.36,-1.44,51.31,-27.33,3.30,-34.95,23.40,32.97,10.989,
07/02/2025,12:21:50.03,611.82,-160.64,354.98,-21.98,-47.34,156.77,0.45,-31.65,27.15,32.77,10.891,
07/02/2025,12:21:50.13,-352.54,-101.56,1292.97,-56.78,130.05,-18.97,13.95,-43.20,18.75,33.30,10.714,
07/02/2025,12:21:50.23,-185.06,-59.08,1018.55,156.76,47.29,11.27,20.85,-37.65,18.15,33.25,10.656,
07/02/2025,12:21:50.34,-87.89,-317.38,1156.74,17.92,29.01,-35.81,21.90,-36.0,18.15,33.11,10.606,
07/02/2025,12:21:50.44,-81.54,-356.93,1151.86,-27.55,31.09,0.33,22.65,-39.45,15.60,33.11,10.563,
07/02/2025,12:21:50.54,30.76,-208.98,835.94,12.50,55.88,26.67,27.15,-43.05,13.80,32.92,10.526,
07/02/2025,12:21:50.64,-392.09,-31.74,753.42,-28.03,102.66,-18.76,37.20,-46.80,4.65,33.06,10.494,
07/02/2025,12:21:50.74,-523.93,28.81,876.46,29.36,54.28,-0.27,45.15,-54.0,-6.75,32.92,10.465,
07/02/2025,12:21:50.84,-570.80,83.50,949.22,20.27,23.73,13.30,54.90,-55.50,-10.05,32.58,10.440,
07/02/2025,12:21:50.94,-614.75,39.06,705.57,31.18,64.03,29.47,60.15,-54.0,-5.25,32.77,10.417,
07/02/2025,12:21:51.04,-728.03,2.93,659.18,17.80,162.17,7.05,64.65,-52.05,-13.65,32.92,10.396,
07/02/2025,12:21:51.14,-511.23,-4.88,968.26,-54.67,62.69,-7.53,67.80,-57.60,-7.65,32.73,10.377,
07/02/2025,12:21:51.24,-121.58,-975.59,180.66,-13.83,91.0,-7.15,63.45,-58.95,-20.25,32.92,10.360,
07/02/2025,12:21:51.34,-749.02,-115.72,850.59,14.11,-75.85,10.56,65.55,-63.0,-17.55,32.73,10.300,
07/02/2025,12:21:51.44,-699.22,-188.96,708.01,8.05,-202.79,-10.22,67.80,-61.80,-9.0,33.06,10.288,
07/02/2025,12:21:51.54,-338.87,-18.07,865.23,-30.34,61.99,-3.22,66.75,-58.50,6.75,33.06,10.277,
07/02/2025,12:21:51.65,-509.77,8.79,780.27,19.14,-35.79,3.79,64.95,-60.90,2.70,32.63,10.266,
07/02/2025,12:21:51.75,-487.79,-41.50,915.53,-3.79,6.38,-0.59,61.05,-53.70,6.90,32.73,10.256,
07/02/2025,12:21:51.85,-590.82,3.91,1379.39,7.12,36.37,1.95,64.20,-47.85,-1.50,32.77,10.247,
07/02/2025,12:21:51.95,-718.75,86.91,835.94,-28.90,-12.14,-1.59,64.65,-48.90,-2.70,32.82,10.239,
07/02/2025,12:21:52.05,-563.48,-13.67,840.33,-2.77,5.40,2.82,66.60,-49.95,-4.35,32.92,10.231,
07/02/2025,12:21:52.15,-522.46,-24.90,875.49,-1.40,-2.34,1.26,64.20,-49.65,-3.0,32.82,10.224,
07/02/2025,12:21:52.25,-519.53,-29.79,873.54,-2.27,2.05,-1.87,66.30,-47.55,-4.65,32.82,10.217,
07/02/2025,12:21:52.35,-519.04,-25.88,871.58,-2.22,1.34,-0.18,64.80,-49.20,-3.60,32.73,10.210,
07/02/2025,12:21:52.45,-528.81,-30.76,879.88,-0.78,-0.39,-0.27,65.70,-48.90,-4.50,32.97,10.204,
07/02/2025,12:21:52.55,-522.46,-35.64,882.32,-2.0,1.49,-0.14,66.75,-48.90,-3.45,32.97,10.169,
07/02/2025,12:21:52.65,-522.95,-37.60,871.58,-0.01,1.65,-4.04,66.0,-51.0,-3.90,32.58,10.165,
07/02/2025,12:21:52.75,-510.74,-29.30,875.0,-0.39,-0.55,-3.20,64.80,-48.30,-2.10,32.77,10.160,
07/02/2025,12:21:52.86,-518.07,-33.69,874.02,-0.18,0.87,-0.60,65.55,-47.55,-3.90,32.73,10.156,
07/02/2025,12:21:52.96,-525.39,-19.53,866.21,-0.64,-0.31,-3.15,65.85,-49.20,-2.55,32.73,10.152,
07/02/2025,12:21:53.06,-516.60,-30.76,864.26,0.37,0.27,-1.21,65.85,-49.20,-2.55,32.92,10.149,
07/02/2025,12:21:53.16,-527.83,-35.64,874.02,-0.70,0.51,-1.08,65.40,-46.65,-3.0,32.58,10.145,
07/02/2025,12:21:53.26,-533.20,-33.20,867.19,0.30,1.47,-0.69,65.40,-50.40,-1.95,32.73,10.142,
07/02/2025,12:21:53.36,-528.81,-34.18,876.46,-1.55,0.39,-0.62,65.70,-48.15,-3.0,32.73,10.138,
07/02/2025,12:21:53.46,-525.88,-32.23,877.44,0.08,-0.09,-2.71,64.95,-48.60,-2.70,32.82,10.135,
07/02/2025,12:21:53.56,-519.53,-25.88,867.19,3.34,-1.57,1.05,64.35,-48.0,-2.85,33.06,10.132,
07/02/2025,12:21:53.66,-525.88,-32.71,878.91,0.13,-0.79,-0.01,65.85,-48.75,-3.90,32.73,10.129,
07/02/2025,12:21:53.76,-527.83,-38.09,861.82,-0.60,-0.05,2.07,65.40,-48.60,-4.80,32.82,10.105,
07/02/2025,12:21:53.86,-512.70,-28.81,881.84,0.32,-0.78,2.02,66.60,-48.30,-3.90,32.73,10.103,
07/02/2025,12:21:53.96,-529.79,-38.09,875.0,-1.27,0.47,1.0,65.85,-49.20,-3.60,32.63,10.101,
07/02/2025,12:21:54.07,-527.34,-42.97,877.44,1.55,-0.50,-0.21,65.70,-48.60,-2.25,32.73,10.099,
07/02/2025,12:21:54.17,-514.16,-30.76,877.93,1.09,-2.93,1.95,66.30,-49.95,-3.60,32.58,10.097,
07/02/2025,12:21:54.27,-523.93,-39.55,866.70,2.46,-0.70,1.79,66.60,-48.30,-2.10,32.58,10.095,
07/02/2025,12:21:54.37,-522.46,-29.30,869.14,-0.51,-1.42,1.02,65.85,-49.50,-3.15,32.92,10.093,
07/02/2025,12:21:54.47,-521.48,-30.27,873.05,1.24,-2.12,1.26,66.30,-49.95,-3.60,32.63,10.092,
07/02/2025,12:21:54.57,-520.02,-31.25,877.44,2.09,-1.55,0.59,66.0,-47.40,-3.45,32.73,10.090,
07/02/2025,12:21:54.67,-518.55,-42.48,864.26,1.69,-2.08,1.16,64.80,-49.95,-2.55,33.06,10.088,
07/02/2025,12:21:54.77,-511.72,-44.92,876.46,0.40,0.35,-1.24,64.95,-48.90,-3.45,32.58,10.087,
07/02/2025,12:21:54.87,-521.48,-35.64,868.16,-0.74,1.01,0.63,67.35,-49.20,-4.65,32.58,10.085,
07/02/2025,12:21:54.97,-520.51,-35.16,879.88,-0.35,0.77,-1.67,66.0,-50.40,-3.45,32.73,10.084,
07/02/2025,12:21:55.07,-524.90,-35.64,865.23,0.84,4.18,-0.71,65.85,-47.55,-1.80,32.58,10.066,
07/02/2025,12:21:55.17,-510.25,-27.34,876.46,-1.16,-1.58,-1.39,64.95,-48.60,-3.0,32.77,10.065,
07/02/2025,12:21:55.28,-509.77,-33.69,880.37,-2.27,1.78,-0.98,65.40,-49.35,-3.75,32.44,10.064,
07/02/2025,12:21:55.38,-512.21,-38.57,859.38,-1.57,0.76,0.11,65.85,-48.30,-3.15,32.73,10.063,
07/02/2025,12:21:55.48,-518.07,-37.60,866.70,-0.01,1.76,-1.66,65.40,-48.60,-2.25,32.73,10.062,
07/02/2025,12:21:55.58,-519.04,-29.79,870.12,-2.69,-0.65,-0.05,66.45,-49.35,-4.50,32.58,10.061,
07/02/2025,12:21:55.68,-530.27,-35.16,869.14,-1.19,0.94,-0.84,66.0,-49.65,-3.0,32.73,10.060,
07/02/2025,12:21:55.78,-516.11,-39.55,883.30,-0.12,-0.24,-0.95,66.45,-49.65,-4.50,32.39,10.059,
07/02/2025,12:21:55.88,-517.58,-38.57,877.44,-1.09,1.55,-2.01,66.0,-50.10,-3.75,32.63,10.058,
07/02/2025,12:21:55.98,-518.07,-44.92,882.32,0.69,0.72,0.96,65.40,-49.65,-5.25,32.73,10.057,
07/02/2025,12:21:56.08,-511.72,-40.04,867.68,-1.88,0.10,-1.50,65.40,-49.35,-2.25,32.73,10.057,
07/02/2025,12:21:56.18,-521.48,-37.60,875.0,-0.37,-0.66,1.41,65.55,-48.0,-3.90,32.44,10.056,
07/02/2025,12:21:56.28,-521.97,-26.37,869.63,0.37,-2.84,0.45,66.30,-49.50,-3.60,32.73,10.041,
07/02/2025,12:21:56.38,-525.88,-18.55,871.58,0.79,-1.89,2.05,64.20,-48.90,-4.20,32.73,10.041,
07/02/2025,12:21:56.48,-520.02,-43.46,873.05,0.02,-1.10,1.73,65.40,-49.65,-3.45,32.63,10.040,
07/02/2025,12:21:56.59,-517.58,-35.16,880.37,1.36,0.27,-0.52,64.95,-48.60,-4.50,32.58,10.040,
07/02/2025,12:21:56.69,-518.55,-58.59,860.84,1.37,-2.09,0.25,66.60,-48.0,-3.90,32.73,10.039,
07/02/2025,12:21:56.79,-514.16,-36.13,882.81,1.63,-0.89,0.30,64.35,-48.75,-1.80,32.53,10.039,
07/02/2025,12:21:56.89,-513.18,-33.20,873.54,1.92,-2.18,1.21,65.55,-49.50,-3.90,32.73,10.038,
07/02/2025,12:21:56.99,-518.55,-42.48,874.02,0.11,-1.72,0.70,66.45,-48.90,-3.45,32.73,10.038,
07/02/2025,12:21:57.09,-523.44,-36.62,877.93,2.02,-0.56,1.22,64.80,-48.30,-3.15,32.53,10.037,
07/02/2025,12:21:57.19,-521.97,-42.48,877.93,-0.34,1.36,-0.76,65.85,-48.75,-3.60,32.58,10.037,
07/02/2025,12:21:57.29,-508.30,-40.53,868.65,-1.93,-0.17,-2.30,65.85,-49.95,-3.15,32.73,10.036,
07/02/2025,12:21:57.39,-512.70,-34.67,868.65,-0.31,-1.33,3.47,65.55,-48.75,-2.85,32.58,10.036,
07/02/2025,12:21:57.49,-503.42,-37.11,869.14,-1.50,1.24,-1.21,66.30,-48.75,-3.90,32.58,10.024,
07/02/2025,12:21:57.59,-519.53,-24.90,873.54,-0.03,0.05,-1.79,65.55,-48.75,-2.10,32.73,10.023,
07/02/2025,12:21:57.69,-521.97,-42.97,867.68,-0.24,1.58,-1.95,64.95,-49.35,-2.25,32.58,10.023,
07/02/2025,12:21:57.80,-518.07,-34.67,869.14,-0.73,-0.67,-2.56,64.95,-48.90,-2.70,32.82,10.023,
07/02/2025,12:21:57.90,-523.93,-46.39,874.51,-0.70,-0.37,-1.50,65.55,-49.50,-3.60,32.58,10.023,
07/02/2025,12:21:58.00,-518.55,-41.50,870.12,-1.05,1.82,-2.04,66.30,-48.30,-3.60,32.58,10.022,
07/02/2025,12:21:58.10,-525.39,-35.64,874.51,0.12,-1.34,0.62,65.10,-48.30,-3.90,32.63,10.022,
07/02/2025,12:21:58.20,-517.09,-44.92,872.56,0.54,-0.21,4.73,66.30,-49.95,-3.15,32.39,10.022,
07/02/2025,12:21:58.30,-532.71,-51.76,874.51,0.32,-0.41,1.27,65.40,-48.90,-3.75,32.77,10.022,
07/02/2025,12:21:58.40,-523.93,-43.46,883.30,1.18,-0.34,1.34,65.55,-49.95,-3.90,32.73,10.021,
07/02/2025,12:21:58.50,-520.02,-35.16,889.16,1.87,-1.06,2.08,66.0,-49.65,-3.45,32.58,10.021,
07/02/2025,12:21:58.60,-515.14,-25.39,865.23,1.37,-0.26,0.36,66.75,-48.90,-3.45,32.58,10.021,
07/02/2025,12:21:58.70,-507.81,-35.16,860.35,3.26,-1.76,1.09,64.80,-48.0,-4.65,32.39,10.010,
07/02/2025,12:21:58.80,-520.51,-48.34,865.72,1.93,-0.66,-1.37,65.40,-49.35,-3.45,32.82,10.010,
07/02/2025,12:21:58.90,-517.58,-22.46,872.56,-1.12,0.69,1.15,64.95,-49.65,-2.70,32.82,10.010,
07/02/2025,12:21:59.01,-527.83,-47.36,870.61,2.85,-2.34,1.74,66.45,-50.40,-2.70,32.73,10.010,
07/02/2025,12:21:59.11,-527.34,-28.32,868.16,-1.02,0.16,-1.96,65.10,-48.75,-3.90,32.63,10.010,
07/02/2025,12:21:59.21,-510.74,-39.06,866.21,1.31,-0.59,-1.89,64.80,-49.95,-2.85,32.73,10.010,
07/02/2025,12:21:59.31,-517.09,-41.02,873.54,-2.50,0.46,-1.56,66.45,-49.65,-3.75,32.58,10.010,
07/02/2025,12:21:59.41,-529.79,-36.13,869.14,-0.05,2.11,-1.92,66.75,-48.90,-4.20,32.77,10.010,
07/02/2025,12:21:59.51,-517.58,-33.69,872.56,-0.15,-0.27,-2.25,64.35,-48.75,-3.60,32.39,10.010,
07/02/2025,12:21:59.61,-507.81,-40.53,872.56,-0.09,2.21,-1.50,66.45,-48.15,-3.45,32.73,10.009,
07/02/2025,12:21:59.71,-519.04,-34.18,874.51,0.50,1.06,-1.89,65.70,-49.35,-3.45,32.58,10.009,
07/02/2025,12:21:59.81,-529.79,-43.46,866.70,-0.27,1.10,1.33,65.70,-50.10,-4.20,32.73,10.009,
07/02/2025,12:21:59.91,-512.70,-35.16,873.54,-1.89,1.96,-0.75,65.85,-49.20,-3.90,32.53,10.0,
07/02/2025,12:22:00.01,-516.11,-27.83,879.88,-1.32,-0.85,-2.02,65.85,-49.50,-3.60,32.25,10.0,
07/02/2025,12:22:00.11,-526.86,-28.32,873.05,-0.82,1.92,0.55,64.20,-48.90,-2.70,32.63,10.0,
07/02/2025,12:22:00.22,-531.74,-42.48,879.39,1.19,-1.96,1.56,66.45,-48.15,-2.70,32.63,10.0,
07/02/2025,12:22:00.32,-525.88,-32.23,875.49,-1.81,1.25,3.05,65.85,-48.75,-3.60,32.58,10.0,
07/02/2025,12:22:00.42,-523.93,-46.39,877.44,1.93,-0.65,1.07,65.70,-48.90,-1.95,32.63,10.0,
07/02/2025,12:22:00.52,-528.32,-26.86,872.07,-1.53,-1.21,0.69,66.45,-48.60,-2.70,32.63,10.0,
07/02/2025,12:22:00.62,-522.46,-36.13,880.86,2.02,0.24,1.46,65.10,-49.20,-3.60,32.73,10.0,
07/02/2025,12:22:00.72,-492.68,-33.20,859.86,1.66,-3.92,3.62,64.65,-49.35,-3.75,32.58,10.0,
07/02/2025,12:22:00.82,-515.63,-32.23,883.30,1.76,-1.86,0.72,66.30,-49.95,-3.90,32.44,10.0,
07/02/2025,12:22:00.92,-521.00,-34.67,870.12,-1.11,-1.16,-0.81,65.55,-47.55,-4.65,32.58,10.0,
07/02/2025,12:22:01.02,-522.46,-47.85,868.16,-3.75,3.20,-0.48,64.95,-48.15,-3.0,32.73,10.0,
07/02/2025,12:22:01.12,-517.58,-43.46,882.81,-1.70,1.86,-2.01,65.85,-49.95,-4.65,32.39,9.992,
07/02/2025,12:22:01.22,-519.53,-34.67,875.0,-1.02,0.87,0.42,65.40,-47.85,-3.75,32.58,9.992,
07/02/2025,12:22:01.32,-511.72,-14.65,875.49,-0.40,-0.22,-0.51,65.55,-48.75,-3.15,32.73,9.992,
07/02/2025,12:22:01.42,-521.00,-38.57,870.61,-1.43,0.50,0.63,67.05,-48.75,-3.60,32.77,9.992,
07/02/2025,12:22:01.53,-521.97,-44.92,876.46,-3.50,2.69,-1.73,64.95,-49.65,-4.20,32.63,9.992,
07/02/2025,12:22:01.63,-522.46,-37.60,878.42,0.58,1.53,-0.24,65.10,-48.30,-3.15,32.73,9.992,
07/02/2025,12:22:01.73,-519.53,-34.18,874.51,-0.42,0.35,0.63,64.80,-48.0,-3.90,32.63,9.992,
07/02/2025,12:22:01.83,-522.95,-46.88,869.63,-0.79,-1.97,1.62,64.65,-48.60,-3.75,32.73,9.992,
07/02/2025,12:22:01.93,-510.74,-43.46,875.0,-2.01,1.11,-2.0,65.40,-47.40,-3.45,32.58,9.992,
07/02/2025,12:22:02.03,-522.46,-29.30,875.98,-1.87,0.34,-1.31,65.40,-48.90,-3.0,32.58,9.992,
07/02/2025,12:22:02.13,-514.65,-33.69,864.26,-0.71,-0.65,1.07,64.80,-48.30,-3.60,32.73,9.992,
07/02/2025,12:22:02.23,-525.39,-44.92,875.49,0.82,0.37,3.49,66.45,-49.35,-1.95,32.39,9.992,
07/02/2025,12:22:02.33,-518.55,-28.32,864.26,1.59,-1.59,2.27,66.45,-49.35,-3.75,32.77,9.985,
07/02/2025,12:22:02.43,-518.07,-41.02,868.65,1.80,-0.31,3.40,64.95,-48.90,-3.45,32.39,9.985,
07/02/2025,12:22:02.53,-514.16,-31.74,877.44,-0.14,-3.42,-1.05,65.85,-48.75,-3.15,32.73,9.985,
07/02/2025,12:22:02.63,-525.88,-42.48,862.79,1.34,-0.16,1.69,66.0,-48.60,-2.70,32.73,9.985,
07/02/2025,12:22:02.74,-517.58,-39.06,875.98,-0.02,-2.36,3.32,65.85,-50.70,-3.15,32.58,9.985,
07/02/2025,12:22:02.84,-512.70,-29.30,870.12,0.83,-0.82,0.11,66.60,-49.50,-2.85,32.63,9.986,
07/02/2025,12:22:02.94,-526.86,-33.69,877.44,-1.17,1.43,-1.69,65.40,-47.85,-3.45,32.73,9.986,
07/02/2025,12:22:03.04,-530.27,-23.93,865.23,-0.59,2.24,0.20,66.45,-49.65,-3.45,32.44,9.986,
07/02/2025,12:22:03.14,-524.90,-36.62,872.07,0.51,0.23,-0.95,65.10,-48.75,-3.15,32.58,9.986,
07/02/2025,12:22:03.24,-518.55,-33.69,870.61,0.76,2.58,0.86,66.45,-49.35,-3.0,32.58,9.986,
07/02/2025,12:22:03.34,-511.23,-35.64,873.54,-0.18,0.87,-1.12,65.70,-49.35,-4.20,32.58,9.986,
07/02/2025,12:22:03.44,-521.00,-22.46,872.07,2.56,-0.89,-3.10,65.55,-49.95,-2.55,32.82,9.986,
07/02/2025,12:22:03.54,-520.51,-37.60,885.25,-2.32,1.31,-1.33,65.40,-48.60,-3.75,32.63,9.986,
07/02/2025,12:22:03.64,-518.55,-45.41,875.98,-0.31,2.11,1.04,66.75,-49.35,-3.45,32.73,9.979,
07/02/2025,12:22:03.74,-513.18,-26.37,875.98,-0.44,0.77,-1.80,66.0,-49.35,-1.20,32.39,9.980,
07/02/2025,12:22:03.84,-516.60,-21.97,877.93,-1.02,-0.89,-1.53,64.80,-48.75,-3.15,32.58,9.980,
07/02/2025,12:22:03.95,-519.53,-32.23,869.14,-1.08,0.21,-2.56,65.10,-50.25,-3.15,32.73,9.980,
07/02/2025,12:22:04.05,-516.11,-37.60,873.54,-1.18,0.05,1.11,65.10,-47.55,-4.35,32.73,9.980,
07/02/2025,12:22:04.15,-516.11,-45.41,878.91,-1.57,0.64,-0.24,66.60,-49.20,-2.55,32.44,9.980,
07/02/2025,12:22:04.25,-519.53,-43.46,863.28,-0.73,-1.13,-1.59,66.45,-50.40,-4.20,32.29,9.980,
07/02/2025,12:22:04.35,-509.77,-27.34,876.46,-0.76,3.73,-1.24,65.85,-49.50,-3.60,32.73,9.980,
07/02/2025,12:22:04.45,-519.53,-32.71,895.02,0.51,-0.56,2.0,64.65,-49.35,-3.0,32.73,9.981,
07/02/2025,12:22:04.55,-517.09,-24.90,878.42,-0.88,-1.56,1.47,65.40,-49.35,-3.45,32.58,9.981,
07/02/2025,12:22:04.65,-523.93,-35.64,870.61,0.81,0.95,4.43,65.55,-50.25,-3.60,32.63,9.981,
07/02/2025,12:22:04.75,-520.51,-37.11,886.23,0.41,-1.0,-1.84,65.40,-50.10,-2.70,32.58,9.981,
07/02/2025,12:22:04.85,-513.67,-32.23,868.16,0.26,-1.31,-0.29,64.95,-48.90,-2.70,32.73,9.975,
07/02/2025,12:22:04.95,-517.09,-42.97,867.68,0.69,0.31,1.40,66.0,-48.90,-3.0,32.73,9.975,
07/02/2025,12:22:05.05,-529.79,-34.67,873.54,0.99,-0.21,-0.78,66.45,-49.35,-1.95,32.58,9.975,
07/02/2025,12:22:05.16,-530.76,-35.64,870.61,1.15,-1.29,0.0,66.60,-49.20,-3.60,32.63,9.975,
07/02/2025,12:22:05.26,-519.04,-24.90,879.39,1.47,1.27,1.29,66.0,-50.40,-2.70,32.73,9.975,
07/02/2025,12:22:05.36,-520.51,-34.67,869.63,-1.41,0.06,-2.37,66.0,-49.65,-3.0,32.44,9.976,
07/02/2025,12:22:05.46,-522.95,-34.18,879.39,-0.10,1.31,1.56,65.85,-49.20,-2.85,32.73,9.976,
07/02/2025,12:22:05.56,-514.16,-41.50,874.51,-2.83,0.11,-0.53,65.10,-48.30,-3.60,32.44,9.976,
07/02/2025,12:22:05.66,-519.53,-41.99,883.79,-0.58,1.15,-3.12,66.30,-49.20,-3.90,32.53,9.976,
07/02/2025,12:22:05.76,-518.55,-33.69,873.05,-1.21,1.34,-0.68,64.05,-48.30,-3.15,32.63,9.976,
07/02/2025,12:22:05.86,-523.93,-38.09,860.35,-0.91,-1.03,0.47,64.80,-49.50,-2.85,32.29,9.976,
07/02/2025,12:22:05.96,-511.72,-31.74,875.98,-1.08,1.27,-0.24,65.85,-49.50,-2.55,32.63,9.976,
07/02/2025,12:22:06.06,-525.39,-44.92,879.88,-0.61,-1.69,0.22,65.55,-48.75,-3.15,32.44,9.971,
07/02/2025,12:22:06.16,-501.46,-32.23,869.63,1.76,-3.11,2.50,64.65,-48.90,-2.25,32.58,9.971,
07/02/2025,12:22:06.26,-519.04,-38.57,871.58,2.13,-1.66,2.07,64.95,-48.60,-4.20,32.73,9.971,
07/02/2025,12:22:06.37,-531.74,-47.36,874.02,-0.93,-1.15,1.05,64.95,-48.90,-4.80,32.29,9.971,
07/02/2025,12:22:06.47,-526.86,-45.90,873.54,-0.79,-3.32,0.85,65.55,-49.20,-4.65,32.58,9.971,
07/02/2025,12:22:06.57,-527.34,-46.39,863.28,0.65,-0.65,3.50,65.85,-48.75,-3.90,32.73,9.972,
07/02/2025,12:22:06.67,-523.44,-37.11,877.93,1.15,-0.35,4.44,64.80,-49.50,-3.60,32.39,9.972,
07/02/2025,12:22:06.77,-515.63,-40.53,872.07,0.02,-2.36,3.49,65.85,-48.75,-3.60,32.39,9.972,
07/02/2025,12:22:06.87,-519.04,-40.04,881.35,3.07,-1.60,-0.29,65.85,-48.30,-2.55,32.58,9.972,
07/02/2025,12:22:06.97,-508.30,-36.62,868.16,-1.24,0.90,0.64,65.10,-47.55,-3.90,32.44,9.972,
07/02/2025,12:22:07.07,-525.88,-36.13,886.23,0.22,0.56,1.69,66.0,-49.35,-3.45,32.63,9.972,
07/02/2025,12:22:07.17,-514.65,-46.88,858.89,1.73,2.24,2.73,66.0,-48.60,-3.75,32.44,9.972,
07/02/2025,12:22:07.27,-527.83,-34.67,871.09,-0.42,0.27,-1.68,65.40,-49.35,-3.0,32.63,9.967,
07/02/2025,12:22:07.37,-529.79,-38.09,870.61,0.56,3.34,-0.17,66.60,-50.25,-2.85,32.63,9.967,
07/02/2025,12:22:07.47,-519.04,-34.67,871.58,-2.89,-1.87,-0.45,64.95,-49.65,-2.70,32.39,9.967,
07/02/2025,12:22:07.58,-523.93,-38.09,869.63,0.45,0.21,-0.42,66.0,-50.10,-4.50,32.44,9.968,
07/02/2025,12:22:07.68,-515.14,-39.55,875.49,-0.24,0.21,-1.12,64.20,-50.10,-4.20,32.39,9.968,
07/02/2025,12:22:07.78,-518.07,-27.34,870.12,-0.96,-0.44,-1.01,65.40,-48.60,-3.75,32.73,9.968,
07/02/2025,12:22:07.88,-502.44,-42.97,868.65,-0.14,0.38,-1.76,65.55,-49.20,-3.90,32.58,9.968,
07/02/2025,12:22:07.98,-513.18,-36.13,880.37,0.27,-0.53,-1.24,64.35,-50.70,-4.35,32.58,9.968,
07/02/2025,12:22:08.08,-521.48,-37.11,872.56,-0.08,-1.21,-1.08,67.05,-48.75,-4.35,32.39,9.969,
07/02/2025,12:22:08.18,-515.14,-35.16,876.95,0.48,-0.24,0.39,65.70,-48.60,-2.70,32.53,9.969,
07/02/2025,12:22:08.28,-519.04,-39.55,878.91,0.02,0.56,3.26,65.55,-48.30,-2.55,32.39,9.969,
07/02/2025,12:22:08.38,-513.67,-23.93,871.58,-0.06,-1.52,-1.71,64.80,-49.20,-2.85,32.58,9.969,
07/02/2025,12:22:08.48,-523.93,-35.16,869.14,-0.97,-1.13,-0.35,65.10,-49.20,-5.40,32.44,9.969,
07/02/2025,12:22:08.58,-521.48,-41.99,874.51,2.97,-0.89,0.91,65.40,-48.60,-1.95,32.53,9.964,
07/02/2025,12:22:08.68,-524.90,-39.06,881.84,0.63,-1.08,0.63,65.40,-47.40,-3.0,32.53,9.964,
07/02/2025,12:22:08.79,-512.70,-38.57,877.44,1.09,-1.74,0.21,65.55,-49.20,-3.60,32.25,9.965,
07/02/2025,12:22:08.89,-511.72,-34.18,870.61,-0.87,-0.94,1.03,65.70,-48.90,-2.70,32.58,9.965,
07/02/2025,12:22:08.99,-514.65,-24.41,871.58,-0.74,-0.61,-1.08,64.80,-48.75,-3.15,32.39,9.965,
07/02/2025,12:22:09.09,-527.83,-28.32,879.88,-3.21,1.89,0.85,65.85,-48.75,-2.10,32.39,9.965,
07/02/2025,12:22:09.19,-523.44,-25.39,878.42,-0.92,0.94,-0.53,66.30,-47.55,-2.55,32.29,9.965,
07/02/2025,12:22:09.29,-515.63,-40.53,865.72,-0.46,0.10,1.01,66.45,-50.40,-3.45,32.44,9.965,
07/02/2025,12:22:09.39,-521.48,-43.46,888.18,-1.64,-0.37,-3.43,65.70,-49.35,-3.0,32.58,9.966,
07/02/2025,12:22:09.49,-518.07,-37.60,882.32,-0.63,0.37,-2.70,65.40,-49.65,-2.70,32.44,9.966,
07/02/2025,12:22:09.59,-517.58,-38.09,871.58,-0.30,0.58,-0.08,65.40,-49.35,-2.70,32.39,9.966,
07/02/2025,12:22:09.69,-520.02,-47.85,872.07,-0.50,-0.92,0.53,66.0,-49.35,-3.0,32.77,9.966,
07/02/2025,12:22:09.79,-520.02,-40.04,870.12,0.15,-3.50,-0.15,64.95,-48.15,-3.0,32.58,9.962,
07/02/2025,12:22:09.89,-517.58,-34.18,878.42,1.90,0.27,3.14,64.35,-49.95,-3.15,32.25,9.962,
07/02/2025,12:22:09.99,-517.58,-32.71,873.54,0.63,0.24,3.69,66.75,-49.35,-3.0,32.44,9.962,
07/02/2025,12:22:10.10,-511.23,-45.41,872.56,0.89,-1.17,0.40,65.70,-49.65,-3.0,32.73,9.962,
07/02/2025,12:22:10.20,-520.51,-40.04,877.44,0.0,-0.21,0.61,64.35,-49.95,-4.65,32.39,9.962,
07/02/2025,12:22:10.30,-523.44,-40.04,867.19,-0.53,-1.20,0.05,65.10,-49.50,-3.90,32.53,9.962,
07/02/2025,12:22:10.40,-516.11,-48.34,881.35,1.08,0.69,2.24,65.10,-48.0,-2.55,32.29,9.963,
07/02/2025,12:22:10.50,-511.23,-43.95,873.05,0.05,-0.64,0.94,65.10,-49.20,-3.15,32.39,9.963,
07/02/2025,12:22:10.60,-513.67,-27.34,873.05,-1.88,-0.03,1.56,65.10,-49.50,-3.90,32.39,9.963,
07/02/2025,12:22:10.70,-511.23,-29.79,863.77,0.25,-0.88,1.59,65.40,-50.40,-2.25,32.73,9.963,
07/02/2025,12:22:10.80,-522.46,-40.53,860.84,-0.33,-0.05,0.79,65.55,-48.75,-1.80,32.44,9.963,
07/02/2025,12:22:10.90,-514.16,-31.74,875.49,0.15,1.40,-2.01,65.40,-49.65,-6.0,32.44,9.963,
07/02/2025,12:22:11.00,-516.11,-29.79,859.38,-1.03,0.22,-1.50,65.55,-48.30,-4.35,32.25,9.959,
07/02/2025,12:22:11.10,-517.09,-23.93,877.44,0.12,0.18,-1.24,64.80,-50.25,-3.60,32.39,9.959,
07/02/2025,12:22:11.20,-531.74,-38.57,875.49,-0.51,3.69,-0.23,64.35,-49.50,-3.15,32.39,9.959,
07/02/2025,12:22:11.31,-520.51,-36.13,872.07,-1.85,1.07,0.63,65.70,-49.65,-3.0,32.39,9.960,
07/02/2025,12:22:11.41,-528.81,-29.79,875.98,-1.92,0.34,-1.56,66.30,-47.55,-3.90,32.44,9.960,
07/02/2025,12:22:11.51,-515.14,-37.11,877.44,-0.81,1.16,-1.52,65.70,-49.35,-3.0,32.39,9.960,
07/02/2025,12:22:11.61,-526.86,-27.83,872.56,0.69,-0.33,-1.76,66.0,-49.35,-4.20,32.53,9.960,
07/02/2025,12:22:11.71,-512.21,-31.25,870.12,-1.50,0.97,0.47,65.55,-48.75,-4.35,32.25,9.960,
07/02/2025,12:22:11.81,-519.04,-39.06,867.68,-1.48,-0.12,-0.49,64.95,-48.60,-2.25,32.39,9.961,
07/02/2025,12:22:11.91,-531.25,-33.20,874.02,0.75,1.09,-1.57,65.10,-48.75,-3.15,32.39,9.961,
07/02/2025,12:22:12.01,-517.09,-35.16,873.54,-1.27,0.22,-0.63,65.70,-47.85,-3.75,32.29,9.961,
07/02/2025,12:22:12.11,-507.81,-40.04,879.39,-1.24,-0.34,-1.16,65.55,-47.55,-4.65,32.44,9.961,
07/02/2025,12:22:12.21,-509.77,-33.69,882.81,-1.60,1.52,-1.05,64.65,-48.90,-2.70,32.44,9.957,
07/02/2025,12:22:12.31,-537.11,-46.88,871.09,-0.49,-1.28,1.30,65.85,-48.30,-4.35,32.44,9.957,
07/02/2025,12:22:12.41,-540.04,-31.74,875.49,3.79,-1.40,3.16,65.55,-47.55,-2.85,32.58,9.957,
07/02/2025,12:22:12.52,-518.07,-36.62,883.30,0.10,-1.95,-0.54,65.85,-48.75,-2.85,32.25,9.957,
07/02/2025,12:22:12.62,-521.00,-37.11,885.74,0.83,1.24,0.56,64.65,-48.90,-3.0,32.63,9.958,
07/02/2025,12:22:12.72,-532.71,-35.16,878.91,1.48,-0.25,2.01,64.95,-50.40,-3.45,32.39,9.958,
07/02/2025,12:22:12.82,-512.70,-35.64,869.14,0.89,-0.78,-0.56,66.0,-48.15,-3.0,32.25,9.958,
07/02/2025,12:22:12.92,-515.14,-36.62,870.12,1.08,-3.05,3.42,65.85,-47.55,-2.85,32.53,9.958,
07/02/2025,12:22:13.02,-520.02,-36.13,874.02,-0.19,-0.27,2.11,65.55,-48.75,-3.60,32.29,9.958,
07/02/2025,12:22:13.12,-515.14,-45.90,873.05,0.95,-1.09,1.59,66.75,-49.35,-2.70,32.44,9.959,
07/02/2025,12:22:13.22,-515.63,-33.20,882.32,1.15,-0.81,1.01,65.10,-50.70,-4.35,32.58,9.959,
07/02/2025,12:22:13.32,-519.04,-33.20,867.68,0.60,0.13,0.02,65.85,-48.30,-3.90,32.53,9.959,
07/02/2025,12:22:13.42,-516.60,-35.64,876.95,-0.62,-1.84,1.56,65.40,-49.65,-2.25,32.53,9.959,
07/02/2025,12:22:13.52,-517.58,-33.69,867.19,1.83,-2.92,1.61,65.55,-48.30,-3.60,32.39,9.955,
07/02/2025,12:22:13.62,-515.14,-23.93,881.35,1.35,-0.86,0.17,66.0,-47.85,-3.75,32.58,9.955,
07/02/2025,12:22:13.73,-519.53,-42.97,885.74,0.30,-2.18,1.18,65.10,-49.50,-3.60,32.29,9.955,
07/02/2025,12:22:13.83,-527.83,-39.55,871.58,0.45,-3.63,1.40,65.55,-49.50,-3.15,32.44,9.956,
07/02/2025,12:22:13.93,-512.21,-39.55,875.98,3.31,-0.73,0.51,67.05,-49.20,-4.35,32.58,9.956,
07/02/2025,12:22:14.03,-515.14,-39.06,875.49,-1.27,-3.21,0.56,65.70,-50.40,-3.45,32.25,9.956,
07/02/2025,12:22:14.13,-531.74,-32.71,878.42,-0.24,-0.22,3.22,67.20,-50.40,-3.75,32.44,9.956,
07/02/2025,12:22:14.23,-506.84,-34.67,875.49,-0.65,1.02,-1.66,65.10,-48.30,-3.15,32.44,9.956,
07/02/2025,12:22:14.33,-509.28,-31.74,873.05,0.15,0.37,0.03,66.30,-50.25,-3.15,32.29,9.957,
07/02/2025,12:22:14.43,-510.25,-44.43,882.81,2.38,-0.37,-3.47,64.80,-48.75,-4.35,32.29,9.957,
07/02/2025,12:22:14.53,-533.69,-35.64,872.07,0.13,2.15,-0.34,66.45,-49.35,-4.50,32.44,9.957,
07/02/2025,12:22:14.63,-514.16,-37.60,877.93,0.65,-0.21,0.75,66.0,-48.90,-3.45,32.39,9.957,
07/02/2025,12:22:14.73,-511.23,-28.32,869.63,-1.65,-0.35,0.18,65.70,-48.60,-3.45,32.39,9.953,
07/02/2025,12:22:14.83,-503.42,-45.41,865.72,-0.20,1.15,-1.56,65.70,-48.90,-4.20,32.10,9.954,
07/02/2025,12:22:14.94,-518.07,-32.23,879.88,-1.91,1.34,-0.71,65.40,-49.35,-4.20,32.39,9.954,
07/02/2025,12:22:15.04,-512.21,-43.95,870.12,-0.02,1.13,-0.69,66.30,-49.50,-3.60,32.53,9.954,
07/02/2025,12:22:15.14,-519.53,-42.48,867.19,-0.26,-0.18,-1.19,66.75,-48.60,-4.50,32.39,9.954,
07/02/2025,12:22:15.24,-510.74,-38.09,873.05,-1.66,0.47,-0.15,65.55,-48.30,-1.35,32.10,9.954,
07/02/2025,12:22:15.34,-518.55,-48.34,859.86,-2.15,1.21,-2.07,65.55,-48.75,-3.15,32.10,9.954,
07/02/2025,12:22:15.44,-516.60,-25.39,873.05,-1.69,0.50,-2.44,66.60,-48.75,-3.60,32.20,9.955,
07/02/2025,12:22:15.54,-524.90,-31.74,871.58,0.42,-1.07,-2.17,64.05,-47.55,-2.85,32.44,9.955,
07/02/2025,12:22:15.64,-525.39,-41.50,876.46,-0.77,0.46,-0.47,64.20,-48.90,-3.0,32.39,9.955,
07/02/2025,12:22:15.74,-507.32,-39.55,871.09,-1.15,0.83,-2.53,66.30,-49.50,-3.15,32.58,9.955,
07/02/2025,12:22:15.84,-516.60,-31.74,867.68,-1.37,1.39,-1.04,64.65,-49.35,-3.75,32.25,9.955,
07/02/2025,12:22:15.94,-524.41,-42.97,873.54,1.79,-3.07,0.37,65.85,-50.25,-3.90,32.44,9.952,
07/02/2025,12:22:16.04,-524.90,-45.90,869.63,0.17,0.59,0.22,65.55,-49.95,-4.35,32.44,9.952,
07/02/2025,12:22:16.14,-510.74,-34.18,873.54,-0.63,-0.59,1.83,65.55,-50.70,-3.15,32.10,9.952,
07/02/2025,12:22:16.25,-513.18,-32.23,870.12,1.39,-1.81,2.36,67.05,-47.55,-2.10,32.53,9.952,
07/02/2025,12:22:16.35,-528.81,-28.81,877.44,1.23,-1.68,0.57,66.45,-48.90,-4.20,32.58,9.952,
07/02/2025,12:22:16.45,-519.04,-38.09,864.26,1.13,-0.75,-2.71,65.70,-47.40,-3.75,32.20,9.953,
07/02/2025,12:22:16.55,-520.02,-38.57,877.44,-0.55,-1.51,2.15,65.10,-49.95,-3.90,32.44,9.953,
07/02/2025,12:22:16.65,-516.60,-41.99,875.0,-1.32,-0.58,0.38,66.45,-50.10,-3.45,32.25,9.953,
07/02/2025,12:22:16.75,-514.65,-32.23,872.56,-0.26,-1.65,2.43,65.70,-49.35,-3.45,32.58,9.953,
07/02/2025,12:22:16.85,-505.37,-36.13,880.37,0.93,-0.71,0.76,65.70,-49.35,-3.75,32.20,9.953,
07/02/2025,12:22:16.95,-516.60,-35.16,867.19,1.09,-0.24,-1.53,64.80,-50.25,-3.90,32.39,9.953,
07/02/2025,12:22:17.05,-519.04,-30.76,864.26,0.50,-1.79,1.16,66.45,-49.65,-4.50,32.44,9.954,
07/02/2025,12:22:17.15,-526.86,-44.43,873.05,-2.16,0.53,-0.06,64.35,-50.70,-5.40,32.29,9.950,
07/02/2025,12:22:17.25,-529.79,-38.57,865.23,-0.76,2.11,0.37,64.35,-48.75,-2.55,32.44,9.950,
07/02/2025,12:22:17.35,-519.04,-44.43,869.14,-0.29,0.49,-2.85,64.35,-49.50,-5.10,32.20,9.951,
07/02/2025,12:22:17.46,-514.65,-37.60,876.46,-1.84,-0.81,1.65,65.10,-49.20,-4.65,32.20,9.951,
07/02/2025,12:22:17.56,-511.72,-41.50,868.65,-2.95,0.98,-2.60,65.10,-49.20,-3.15,32.25,9.951,
07/02/2025,12:22:17.66,-509.77,-33.20,880.86,-1.69,0.89,-0.41,64.95,-48.60,-3.45,32.25,9.951,
07/02/2025,12:22:17.76,-517.58,-29.79,870.12,-1.97,-0.85,0.17,66.0,-48.15,-3.45,32.58,9.951,
07/02/2025,12:22:17.86,-523.93,-39.06,870.61,-1.83,-0.47,-0.10,65.70,-48.60,-4.50,32.25,9.951,
07/02/2025,12:22:17.96,-520.02,-33.20,876.46,-2.04,-0.64,0.26,65.85,-49.50,-4.35,32.25,9.952,
07/02/2025,12:22:18.06,-526.37,-42.48,866.21,-0.56,0.35,-1.85,65.70,-49.35,-3.75,32.44,9.952,
07/02/2025,12:22:18.16,-523.44,-42.97,873.05,-1.88,3.85,-1.34,65.40,-48.60,-4.20,32.44,9.952,
07/02/2025,12:22:18.26,-517.09,-33.20,877.93,-0.08,-1.18,-2.37,65.10,-48.30,-2.85,32.39,9.952,
07/02/2025,12:22:18.36,-512.21,-27.83,872.07,-0.64,0.49,0.10,65.70,-49.65,-3.0,32.29,9.952,
07/02/2025,12:22:18.46,-533.20,-43.46,873.05,-1.80,3.17,-3.63,66.45,-49.35,-3.75,32.39,9.949,
07/02/2025,12:22:18.56,-521.00,-34.67,869.63,-0.65,0.70,-0.25,66.30,-49.50,-3.15,32.44,9.949,
07/02/2025,12:22:18.67,-523.44,-30.76,863.77,-1.66,1.92,-1.63,64.05,-49.20,-3.60,32.29,9.949,
07/02/2025,12:22:18.77,-517.58,-42.97,885.74,0.40,3.39,-3.28,65.85,-48.0,-4.35,32.25,9.950,
07/02/2025,12:22:18.87,-518.07,-41.50,877.44,0.60,1.61,-2.33,65.40,-48.90,-2.70,32.25,9.950,
07/02/2025,12:22:18.97,-506.35,-32.23,884.28,-0.67,-1.24,0.27,66.45,-49.65,-3.75,32.25,9.950,
07/02/2025,12:22:19.07,-525.39,-42.48,876.46,-1.55,0.90,-2.37,66.0,-48.15,-3.75,32.39,9.950,
07/02/2025,12:22:19.17,-514.16,-36.13,875.49,-0.79,1.09,-1.44,66.30,-48.75,-3.60,32.58,9.950,
07/02/2025,12:22:19.27,-518.55,-38.57,889.16,-0.53,-1.16,-0.24,66.0,-48.90,-2.70,32.39,9.950,
07/02/2025,12:22:19.37,-516.11,-44.43,872.56,-1.28,0.53,0.66,66.0,-48.15,-3.0,32.29,9.951,
07/02/2025,12:22:19.47,-517.09,-43.46,876.95,-0.54,2.18,-1.72,65.70,-50.40,-3.75,32.20,9.951,
07/02/2025,12:22:19.57,-500.98,-34.18,872.56,-1.15,0.77,-0.76,64.80,-49.20,-3.60,32.29,9.951,
07/02/2025,12:22:19.67,-516.11,-25.39,879.39,0.34,1.11,-1.23,65.55,-48.75,-3.90,32.39,9.948,
07/02/2025,12:22:19.77,-517.09,-40.53,869.14,-2.42,1.98,-2.08,65.10,-49.20,-2.85,32.25,9.948,
07/02/2025,12:22:19.88,-509.28,-39.06,878.42,0.89,-1.49,-1.69,65.85,-49.20,-2.85,32.29,9.948,
07/02/2025,12:22:19.98,-526.37,-37.60,873.05,-0.44,1.53,0.27,66.30,-49.20,-5.40,32.29,9.948,
07/02/2025,12:22:20.08,-519.04,-28.81,877.44,-0.32,1.43,-4.42,65.10,-49.50,-3.60,32.25,9.948,
07/02/2025,12:22:20.18,-511.72,-47.85,879.39,-0.33,0.34,-0.86,64.80,-49.50,-2.85,32.44,9.949,
07/02/2025,12:22:20.28,-515.14,-26.86,879.39,-1.66,0.14,-0.24,64.95,-49.35,-3.45,32.29,9.949,
07/02/2025,12:22:20.38,-528.81,-36.62,886.72,-2.07,1.50,-2.89,64.80,-47.55,-2.55,32.29,9.949,
07/02/2025,12:22:20.48,-522.95,-40.53,880.86,-1.78,0.05,1.52,65.40,-50.10,-4.80,32.10,9.949,
07/02/2025,12:22:20.58,-511.23,-41.99,871.09,0.74,1.06,-0.47,64.80,-49.20,-2.85,32.39,9.949,
07/02/2025,12:22:20.68,-521.48,-35.16,878.42,-0.77,0.22,-1.37,66.75,-49.35,-2.70,32.39,9.949,
07/02/2025,12:22:20.78,-514.16,-37.11,878.91,0.64,1.11,-1.89,66.0,-50.10,-4.50,32.39,9.950,
07/02/2025,12:22:20.88,-518.07,-41.50,870.61,0.73,2.0,-0.69,64.95,-48.60,-4.20,32.01,9.947,
07/02/2025,12:22:20.98,-516.11,-49.80,873.05,-0.93,-1.24,-1.01,65.40,-49.65,-3.75,32.10,9.947,
07/02/2025,12:22:21.08,-513.67,-32.23,878.91,-0.58,1.24,0.76,65.85,-48.0,-3.15,32.29,9.947,
07/02/2025,12:22:21.19,-522.95,-46.39,875.49,-1.29,0.40,-1.10,65.55,-49.20,-3.60,32.25,9.947,
07/02/2025,12:22:21.29,-523.93,-38.09,879.39,-0.30,0.89,-0.94,64.35,-48.0,-3.60,32.25,9.947,
07/02/2025,12:22:21.39,-507.81,-41.02,885.74,-0.44,0.73,-0.61,65.85,-49.95,-3.15,32.39,9.947,
07/02/2025,12:22:21.49,-531.74,-40.53,872.07,0.24,2.36,-1.98,66.45,-49.35,-3.45,32.20,9.948,
07/02/2025,12:22:21.59,-523.44,-29.30,873.54,-0.53,-0.85,-0.58,66.30,-48.30,-3.60,32.53,9.948,
07/02/2025,12:22:21.69,-527.83,-36.13,863.28,-0.16,-0.34,-1.73,66.45,-48.60,-3.45,32.44,9.948,
07/02/2025,12:22:21.79,-506.84,-35.64,880.86,-1.11,-0.98,-1.92,65.40,-49.35,-3.75,32.39,9.948,
07/02/2025,12:22:21.89,-513.18,-26.37,877.93,0.89,0.31,0.18,66.30,-48.75,-2.55,32.39,9.948,
07/02/2025,12:22:21.99,-525.39,-34.18,867.19,-0.14,0.40,-2.71,65.40,-48.15,-3.0,32.10,9.948,
07/02/2025,12:22:22.09,-519.04,-31.25,884.28,-1.39,0.93,-1.53,66.0,-48.60,-3.45,32.29,9.949,
07/02/2025,12:22:22.19,-513.67,-36.62,879.39,-1.66,1.02,-1.64,66.60,-49.50,-3.90,32.29,9.946,
07/02/2025,12:22:22.29,-518.55,-38.09,875.98,-0.38,1.34,-2.70,65.55,-48.30,-4.35,32.39,9.946,
07/02/2025,12:22:22.40,-507.81,-33.69,872.56,-0.31,0.08,-1.80,65.10,-49.50,-3.90,32.53,9.946,
07/02/2025,12:22:22.50,-535.64,-27.34,882.81,-0.11,0.20,0.98,67.05,-48.75,-3.90,32.20,9.946,
07/02/2025,12:22:22.60,-525.88,-49.32,872.56,-1.56,1.69,-1.87,65.70,-49.35,-3.45,32.44,9.946,
07/02/2025,12:22:22.70,-523.93,-42.97,868.65,-1.31,0.70,-0.06,65.55,-50.25,-2.10,32.29,9.947,
07/02/2025,12:22:22.80,-522.46,-32.71,875.98,1.21,-0.08,0.37,67.20,-49.35,-3.0,32.25,9.947,
07/02/2025,12:22:22.90,-519.04,-33.69,868.65,-1.36,-0.66,-0.89,65.10,-48.75,-3.15,32.39,9.947,
07/02/2025,12:22:23.00,-515.63,-47.85,869.14,-2.87,1.04,-2.38,65.85,-49.20,-2.55,32.10,9.947,
07/02/2025,12:22:23.10,-524.90,-38.09,868.16,-1.38,-2.32,-1.68,64.35,-50.25,-2.55,32.25,9.947,
07/02/2025,12:22:23.20,-515.63,-35.64,882.32,-2.27,0.53,-0.97,65.40,-49.35,-3.45,32.25,9.947,
07/02/2025,12:22:23.30,-518.07,-38.09,868.16,-0.53,-0.36,-0.42,64.80,-49.50,-2.10,32.44,9.947,
07/02/2025,12:22:23.40,-522.46,-50.29,870.61,0.55,0.14,-0.81,63.90,-49.65,-3.0,32.25,9.945,
07/02/2025,12:22:23.50,-517.58,-52.25,871.09,-0.59,-0.64,-2.60,65.55,-49.50,-3.15,31.91,9.945,
07/02/2025,12:22:23.60,-519.04,-37.11,878.42,-2.38,-1.92,-1.11,65.55,-49.50,-3.90,32.20,9.945,
07/02/2025,12:22:23.71,-532.71,-41.50,866.70,-2.79,-0.02,-1.64,65.10,-49.95,-3.60,32.39,9.945,
07/02/2025,12:22:23.81,-519.53,-29.79,870.61,-0.77,-1.95,-0.71,65.55,-49.20,-3.15,32.39,9.945,
07/02/2025,12:22:23.91,-521.97,-41.02,872.56,-1.66,1.89,-2.47,65.40,-48.90,-1.95,32.44,9.946,
07/02/2025,12:22:24.01,-521.00,-21.00,861.82,0.36,2.17,-1.60,66.0,-48.90,-3.75,32.10,9.946,
07/02/2025,12:22:24.11,-516.60,-30.27,871.58,0.21,0.18,0.76,65.40,-48.90,-2.70,32.39,9.946,
07/02/2025,12:22:24.21,-527.83,-44.43,879.39,-2.14,-1.14,0.98,64.95,-48.60,-3.0,32.25,9.946,
07/02/2025,12:22:24.31,-523.93,-35.16,876.95,-1.36,1.40,-1.84,65.55,-49.20,-3.60,32.44,9.946,
07/02/2025,12:22:24.41,-505.86,-86.43,800.29,0.38,-3.78,-2.57,64.35,-48.75,-4.65,32.39,9.946,
07/02/2025,12:22:24.51,-527.34,-32.71,864.75,3.11,-1.51,-0.67,65.55,-49.20,-2.85,32.20,9.946,
07/02/2025,12:22:24.61,-518.07,-41.50,881.35,1.50,-3.61,-3.22,65.85,-49.50,-4.65,32.25,9.944,
07/02/2025,12:22:24.71,-506.84,-38.57,870.61,-0.89,1.10,-0.65,65.70,-49.35,-2.25,32.63,9.944,
07/02/2025,12:22:24.81,-504.39,-38.09,876.46,-0.82,1.92,-1.15,65.40,-48.60,-3.45,32.39,9.944,
07/02/2025,12:22:24.92,-517.58,-35.64,895.02,-0.99,-1.34,-1.27,65.70,-48.90,-3.0,32.39,9.944,
07/02/2025,12:22:25.02,-520.02,-32.71,879.39,0.76,0.60,-1.42,65.55,-48.75,-4.65,32.10,9.944,
07/02/2025,12:22:25.12,-513.67,-29.79,878.42,-0.39,3.28,-1.22,65.40,-48.90,-3.45,32.10,9.945,
07/02/2025,12:22:25.22,-513.67,-34.18,869.14,0.40,2.68,-1.10,64.95,-49.35,-2.25,32.39,9.945,
07/02/2025,12:22:25.32,-511.72,-32.23,889.65,0.41,-0.71,0.79,64.95,-48.15,-3.0,32.29,9.945,
07/02/2025,12:22:25.42,-523.44,-34.67,873.05,0.38,2.96,-0.37,66.45,-49.35,-4.50,32.29,9.945,
07/02/2025,12:22:25.52,-514.65,-35.64,875.49,-2.21,1.76,0.91,65.85,-49.20,-3.60,32.25,9.945,
07/02/2025,12:22:25.62,-515.63,-36.13,875.49,-0.73,0.73,-0.62,64.05,-48.75,-3.90,32.25,9.945,
07/02/2025,12:22:25.72,-524.41,-41.50,874.02,1.57,-2.03,1.05,65.10,-49.20,-2.85,32.44,9.946,
07/02/2025,12:22:25.82,-513.18,-37.11,867.19,-1.22,-0.06,-1.73,65.10,-51.45,-3.15,32.39,9.946,
07/02/2025,12:22:25.92,-524.41,-40.53,890.63,-2.21,-0.60,-1.92,65.10,-48.30,-4.35,32.25,9.943,
07/02/2025,12:22:26.02,-500.49,-31.74,870.12,0.41,-0.21,-1.48,65.10,-48.30,-3.15,32.20,9.943,
07/02/2025,12:22:26.13,-510.74,-28.81,873.05,-1.69,1.45,0.37,65.70,-48.15,-3.75,32.25,9.943,
07/02/2025,12:22:26.23,-503.91,-37.11,875.98,-1.21,0.02,0.09,64.20,-48.60,-3.0,32.39,9.944,
07/02/2025,12:22:26.33,-515.63,-36.62,885.74,-1.16,1.44,-1.74,66.30,-49.20,-2.85,32.10,9.944,
07/02/2025,12:22:26.43,-505.86,-30.27,877.44,-1.98,1.31,0.36,65.40,-48.15,-4.20,32.39,9.944,
07/02/2025,12:22:26.53,-523.93,-41.99,876.95,-1.12,-1.19,-0.66,64.95,-48.90,-4.20,32.10,9.944,
07/02/2025,12:22:26.63,-520.51,-44.92,879.39,-1.64,1.40,-1.30,66.60,-49.20,-3.15,32.20,9.944,
07/02/2025,12:22:26.73,-517.58,-29.79,876.46,-1.31,0.69,-0.79,65.40,-48.15,-3.45,32.10,9.944,
07/02/2025,12:22:26.83,-522.95,-39.55,882.32,-0.33,1.05,0.63,65.40,-49.35,-2.70,32.25,9.944,
07/02/2025,12:22:26.93,-518.07,-35.16,875.98,0.15,2.11,-1.31,65.40,-49.65,-3.75,32.25,9.945,
07/02/2025,12:22:27.03,-518.55,-40.04,884.28,-0.51,1.99,-0.80,66.75,-50.85,-4.20,32.01,9.945,
07/02/2025,12:22:27.13,-518.55,-38.57,884.28,-1.56,0.31,0.08,66.60,-48.30,-2.85,32.39,9.942,
07/02/2025,12:22:27.23,-507.32,-45.41,876.95,-0.45,-0.84,-2.05,64.35,-48.0,-3.60,32.29,9.942,
07/02/2025,12:22:27.33,-505.37,-41.50,870.61,1.19,-2.82,0.18,65.70,-48.90,-1.95,32.25,9.943,
07/02/2025,12:22:27.44,-524.41,-35.64,869.63,1.56,-1.37,0.05,65.70,-48.60,-3.75,32.10,9.943,
07/02/2025,12:22:27.54,-518.07,-38.09,883.79,0.08,-2.45,3.08,64.05,-48.0,-4.35,32.58,9.943,
07/02/2025,12:22:27.64,-521.97,-36.62,880.37,0.55,-1.0,1.56,64.95,-50.10,-2.70,32.25,9.943,
07/02/2025,12:22:27.74,-519.53,-30.27,862.79,-1.17,-1.86,1.34,65.85,-48.0,-3.90,32.01,9.943,
07/02/2025,12:22:27.84,-525.39,-35.64,870.61,0.93,-1.22,-0.34,66.0,-49.35,-3.45,32.25,9.943,
07/02/2025,12:22:27.94,-520.02,-42.48,881.35,0.59,-0.05,1.16,65.40,-48.15,-3.45,32.29,9.943,
07/02/2025,12:22:28.04,-516.60,-27.83,882.32,1.51,-1.21,1.44,65.70,-48.90,-3.45,32.29,9.944,
07/02/2025,12:22:28.14,-513.18,-40.53,877.93,0.09,-1.53,1.27,65.55,-48.75,-2.10,32.25,9.944,
07/02/2025,12:22:28.24,-499.51,-46.39,873.05,0.18,-1.27,1.18,65.40,-49.65,-4.20,32.01,9.944,
07/02/2025,12:22:28.34,-510.25,-42.48,869.63,2.22,-0.79,2.69,66.0,-51.30,-3.0,32.29,9.944,
07/02/2025,12:22:28.44,-507.32,-39.55,872.56,0.78,-0.85,1.69,66.75,-49.65,-3.0,32.25,9.942,
07/02/2025,12:22:28.54,-516.60,-36.13,878.42,-0.11,-2.35,2.18,65.40,-49.35,-2.25,32.25,9.942,
07/02/2025,12:22:28.65,-511.23,-44.43,870.12,-0.24,-0.44,1.14,64.95,-48.15,-3.45,32.39,9.942,
07/02/2025,12:22:28.75,-508.30,-28.32,879.88,-0.04,-1.02,2.18,66.60,-49.50,-3.15,32.10,9.942,
07/02/2025,12:22:28.85,-520.51,-30.27,871.09,0.22,-0.79,0.12,67.05,-48.30,-4.35,32.39,9.942,
07/02/2025,12:22:28.95,-522.95,-42.97,881.35,2.08,-2.70,1.12,65.10,-48.75,-4.65,32.10,9.942,
07/02/2025,12:22:29.05,-521.48,-40.53,876.46,-1.06,-0.38,0.72,67.05,-49.95,-3.90,32.25,9.943,
07/02/2025,12:22:29.15,-526.86,-35.64,887.70,-0.27,-0.67,1.50,65.70,-48.60,-3.0,32.20,9.943,
07/02/2025,12:22:29.25,-512.21,-36.62,875.0,0.74,-2.34,-1.40,65.40,-48.90,-2.70,32.06,9.943,
07/02/2025,12:22:29.35,-518.55,-29.30,870.61,1.58,-1.33,-0.05,66.30,-49.20,-3.15,32.25,9.943,
07/02/2025,12:22:29.45,-506.84,-39.55,870.12,0.43,-0.60,2.29,65.70,-48.60,-2.70,32.39,9.943,
07/02/2025,12:22:29.55,-520.02,-48.34,876.46,-0.12,-2.05,2.49,65.85,-48.75,-4.65,32.10,9.943,
07/02/2025,12:22:29.65,-517.09,-42.48,876.95,2.06,-3.48,1.69,65.70,-49.65,-2.25,32.10,9.941,
07/02/2025,12:22:29.75,-511.23,-27.83,880.86,0.50,-1.34,0.04,65.10,-49.20,-3.15,31.91,9.941,
07/02/2025,12:22:29.85,-517.09,-44.92,880.86,0.42,-1.15,0.27,64.95,-48.90,-3.45,32.39,9.941,
07/02/2025,12:22:29.96,-519.04,-41.02,878.42,-1.24,0.09,0.51,66.45,-51.30,-3.75,32.20,9.941,
07/02/2025,12:22:30.06,-527.83,-38.09,873.54,0.73,-0.56,0.95,64.20,-48.90,-2.70,32.10,9.942,
07/02/2025,12:22:30.16,-510.25,-37.11,883.30,-0.10,-0.48,2.53,65.10,-49.95,-3.90,32.25,9.942,
07/02/2025,12:22:30.26,-522.46,-44.43,875.0,0.75,-3.10,2.27,64.20,-49.35,-2.25,31.86,9.942,
07/02/2025,12:22:30.36,-518.55,-44.43,869.63,3.37,0.11,3.15,64.65,-49.35,-2.25,32.10,9.942,
07/02/2025,12:22:30.46,-514.65,-40.53,874.51,0.23,0.08,2.61,66.45,-50.10,-4.50,32.25,9.942,
07/02/2025,12:22:30.56,-515.14,-47.36,882.81,0.40,-1.92,0.66,64.35,-49.95,-2.85,32.29,9.942,
07/02/2025,12:22:30.66,-519.04,-39.55,871.09,0.60,-1.29,4.01,65.55,-48.75,-3.90,32.25,9.942,
07/02/2025,12:22:30.76,-527.34,-43.46,869.14,0.48,-2.78,-0.07,66.0,-48.15,-3.45,32.20,9.943,
07/02/2025,12:22:30.86,-525.39,-33.20,869.63,0.59,-2.84,0.77,64.80,-48.75,-2.85,32.20,9.940,
07/02/2025,12:22:30.96,-516.60,-42.97,873.54,-1.98,1.50,0.54,64.80,-49.20,-2.55,31.86,9.940,
07/02/2025,12:22:31.06,-500.98,-32.23,891.60,-1.29,1.15,-1.22,67.05,-49.50,-2.55,32.29,9.941,
07/02/2025,12:22:31.17,-512.21,-32.71,869.63,-2.53,0.18,-1.27,66.45,-50.10,-3.45,32.20,9.941,
07/02/2025,12:22:31.27,-514.65,-18.55,869.14,1.06,2.18,0.53,64.20,-48.90,-3.75,32.29,9.941,
07/02/2025,12:22:31.37,-521.48,-33.69,867.68,-0.41,-1.66,0.50,66.75,-48.60,-2.70,32.01,9.941,
07/02/2025,12:22:31.47,-535.16,-47.36,867.68,0.31,1.21,-3.42,65.10,-49.20,-4.35,32.01,9.941,
07/02/2025,12:22:31.57,-514.16,-38.09,879.39,0.31,0.54,-0.02,64.20,-49.35,-2.70,32.06,9.941,
07/02/2025,12:22:31.67,-518.07,-39.06,868.65,-1.92,0.63,-2.65,66.30,-49.95,-3.60,32.01,9.941,
07/02/2025,12:22:31.77,-526.37,-39.55,875.0,-1.45,2.15,-0.02,64.80,-48.75,-2.85,32.25,9.942,
07/02/2025,12:22:31.87,-516.60,-39.06,869.14,-1.50,-0.71,1.85,64.20,-49.35,-2.70,32.25,9.942,
07/02/2025,12:22:31.97,-513.67,-38.57,874.02,-0.38,1.82,-1.18,64.80,-48.30,-4.35,31.91,9.942,
07/02/2025,12:22:32.07,-516.11,-38.09,871.58,-2.82,-0.98,0.07,64.35,-49.50,-2.55,32.20,9.942,
07/02/2025,12:22:32.17,-537.11,-34.18,875.0,0.18,1.96,1.02,64.65,-48.60,-1.50,32.25,9.940,
07/02/2025,12:22:32.27,-513.18,-45.41,876.95,-3.33,0.19,1.09,64.05,-49.20,-1.80,32.29,9.940,
07/02/2025,12:22:32.38,-517.09,-37.60,883.79,-1.55,0.85,0.24,66.0,-48.90,-2.70,32.10,9.940,
07/02/2025,12:22:32.48,-516.60,-36.62,879.88,-2.09,-0.11,0.81,67.05,-49.95,-2.10,32.01,9.940,
07/02/2025,12:22:32.58,-518.55,-36.62,873.54,-0.84,-0.41,0.78,66.30,-50.25,-2.55,32.20,9.940,
07/02/2025,12:22:32.68,-526.86,-28.32,880.86,0.83,-1.98,1.16,66.30,-49.95,-3.60,32.10,9.940,
07/02/2025,12:22:32.78,-531.74,-33.69,875.98,1.18,-3.0,2.03,67.05,-48.30,-4.35,32.10,9.941,
07/02/2025,12:22:32.88,-529.30,-36.13,862.30,2.60,0.24,0.45,66.0,-50.10,-3.45,32.29,9.941,
07/02/2025,12:22:32.98,-527.34,-48.83,871.09,1.40,0.23,-0.66,64.95,-50.10,-3.45,32.25,9.941,
07/02/2025,12:22:33.08,-515.63,-35.64,877.44,0.36,-0.79,2.44,66.0,-47.40,-3.75,32.01,9.941,
07/02/2025,12:22:33.18,-508.79,-45.41,867.19,-2.02,-0.35,1.01,64.20,-49.35,-4.20,32.10,9.941,
07/02/2025,12:22:33.28,-517.58,-45.90,868.65,2.02,-0.23,2.11,64.65,-48.60,-2.70,32.39,9.941,
07/02/2025,12:22:33.38,-513.18,-46.39,878.42,0.66,1.21,3.44,65.55,-49.95,-2.85,32.44,9.939,
07/02/2025,12:22:33.48,-512.21,-23.44,874.51,1.60,0.30,2.21,64.80,-49.95,-2.85,32.01,9.939,
07/02/2025,12:22:33.58,-516.60,-41.99,876.95,-0.89,0.06,0.43,65.55,-50.25,-3.15,32.25,9.939,
07/02/2025,12:22:33.69,-523.44,-34.18,873.05,0.76,-1.32,-0.31,64.65,-49.35,-2.70,32.10,9.940,
07/02/2025,12:22:33.79,-507.32,-35.64,869.14,0.50,-1.02,0.02,65.85,-49.20,-3.60,32.25,9.940,
07/02/2025,12:22:33.89,-503.91,-37.60,871.09,1.52,-1.67,2.27,66.0,-49.35,-3.0,32.20,9.940,
07/02/2025,12:22:33.99,-519.53,-33.20,887.70,0.29,-0.58,2.79,66.45,-50.10,-3.75,32.39,9.940,
07/02/2025,12:22:34.09,-518.07,-47.85,874.02,0.36,-1.09,2.63,65.40,-50.10,-2.25,32.10,9.940,
07/02/2025,12:22:34.19,-525.39,-38.09,868.16,0.69,-2.76,-0.44,67.50,-48.15,-4.20,31.91,9.940,
07/02/2025,12:22:34.29,-504.88,-40.04,884.77,-0.21,-3.43,0.63,66.30,-48.30,-3.90,32.10,9.940,
07/02/2025,12:22:34.39,-524.90,-34.67,875.98,0.59,-3.92,2.53,65.40,-47.85,-3.0,32.10,9.940,
07/02/2025,12:22:34.49,-523.93,-33.69,879.88,0.45,-0.35,-0.48,65.85,-49.50,-3.60,32.10,9.941,
07/02/2025,12:22:34.59,-513.18,-27.83,872.07,1.14,1.48,0.73,65.40,-49.35,-2.70,32.25,9.941,
07/02/2025,12:22:34.69,-522.95,-41.02,889.16,0.19,-1.15,-0.15,66.0,-50.10,-2.25,32.25,9.939,
07/02/2025,12:22:34.79,-512.21,-37.60,883.79,-1.87,-1.31,0.34,65.85,-49.20,-2.85,32.20,9.939,
07/02/2025,12:22:34.90,-517.58,-40.53,875.98,-0.56,0.82,0.39,66.0,-49.65,-3.45,31.91,9.939,
07/02/2025,12:22:35.00,-519.53,-31.74,881.35,-1.48,-0.82,-0.19,65.85,-49.50,-2.85,32.20,9.939,
07/02/2025,12:22:35.10,-511.23,-37.11,890.63,-0.60,0.13,1.18,65.85,-49.95,-3.15,32.44,9.939,
07/02/2025,12:22:35.20,-506.84,-42.48,877.44,-1.79,0.60,-1.02,65.10,-48.0,-2.55,32.10,9.939,
07/02/2025,12:22:35.30,-514.65,-32.71,871.58,-0.27,0.66,0.47,65.70,-49.65,-3.75,32.29,9.939,
07/02/2025,12:22:35.40,-506.35,-37.11,880.37,-0.13,-1.89,-1.97,64.35,-47.55,-3.90,31.86,9.940,
07/02/2025,12:22:35.50,-505.86,-20.51,882.32,-1.26,1.47,0.09,64.05,-49.20,-4.65,32.20,9.940,
07/02/2025,12:22:35.60,-516.60,-37.60,876.46,0.21,-1.55,-2.43,65.55,-48.30,-3.90,32.10,9.940,
07/02/2025,12:22:35.70,-510.74,-28.32,874.02,0.06,3.31,-2.97,66.0,-48.90,-3.0,32.10,9.940,
07/02/2025,12:22:35.80,-519.53,-38.57,875.0,-1.33,1.50,-0.44,65.10,-49.20,-3.15,32.10,9.940,
07/02/2025,12:22:35.90,-531.74,-39.06,877.93,-2.04,-0.01,0.37,65.40,-48.90,-2.25,31.86,9.938,
07/02/2025,12:22:36.00,-504.88,-41.02,875.0,0.12,-1.83,-0.11,65.55,-49.95,-3.60,32.20,9.938,
07/02/2025,12:22:36.10,-516.60,-47.36,887.70,-0.27,-0.05,-1.21,66.0,-50.10,-3.45,32.20,9.938,
07/02/2025,12:22:36.21,-525.88,-42.48,876.46,0.12,-0.58,-1.11,65.40,-48.90,-3.0,32.25,9.939,
07/02/2025,12:22:36.31,-518.07,-35.16,883.30,2.44,0.05,2.98,64.20,-48.90,-3.75,32.20,9.939,
07/02/2025,12:22:36.41,-516.60,-40.53,865.72,0.82,-1.73,1.49,64.95,-48.60,-1.95,32.10,9.939,
07/02/2025,12:22:36.51,-509.28,-41.02,880.37,2.02,0.63,-0.65,65.55,-49.20,-4.65,32.10,9.939,
07/02/2025,12:22:36.61,-531.25,-39.55,869.14,0.05,-2.89,0.17,65.55,-49.95,-3.15,31.91,9.939,
07/02/2025,12:22:36.71,-519.53,-32.71,875.98,-0.02,-0.65,-1.72,64.80,-49.50,-3.90,32.25,9.939,
07/02/2025,12:22:36.81,-518.07,-33.69,879.88,0.83,-0.80,3.06,66.75,-50.10,-3.45,32.10,9.939,
07/02/2025,12:22:36.91,-516.11,-39.06,879.88,0.14,-2.11,0.16,64.95,-49.35,-1.95,32.10,9.939,
07/02/2025,12:22:37.01,-518.07,-22.46,873.54,1.57,-1.57,0.78,65.70,-49.65,-3.0,32.25,9.940,
07/02/2025,12:22:37.11,-530.76,-47.85,885.74,2.15,-0.57,-0.14,65.40,-48.60,-3.45,31.91,9.940,
07/02/2025,12:22:37.21,-505.37,-40.53,870.12,-0.04,-1.06,-1.17,65.10,-49.20,-3.60,32.25,9.938,
07/02/2025,12:22:37.31,-516.11,-23.93,880.37,-0.71,-0.66,0.33,67.50,-48.90,-2.70,31.91,9.938,
07/02/2025,12:22:37.42,-507.32,-34.18,881.35,-0.73,-0.36,-3.79,65.10,-49.95,-2.55,32.10,9.938,
07/02/2025,12:22:37.52,-505.86,-32.23,875.49,-1.77,1.34,-0.43,64.20,-50.10,-2.70,32.06,9.938,
07/02/2025,12:22:37.62,-516.11,-21.48,878.42,-0.80,0.44,-0.94,65.85,-49.50,-2.10,32.20,9.938,
07/02/2025,12:22:37.72,-525.39,-41.02,866.21,-1.40,-0.63,-0.40,64.95,-48.60,-3.0,32.25,9.938,
07/02/2025,12:22:37.82,-514.65,-42.97,890.14,-0.71,1.38,0.21,65.40,-48.90,-3.45,32.01,9.939,
07/02/2025,12:22:37.92,-524.41,-45.90,877.93,-1.49,1.26,1.02,66.60,-48.75,-3.15,32.25,9.939,
07/02/2025,12:22:38.02,-503.42,-41.50,892.09,-2.04,1.33,-1.34,64.80,-49.50,-3.90,31.91,9.939,
07/02/2025,12:22:38.12,-505.86,-28.81,887.70,-0.89,-1.25,0.81,65.85,-49.50,-3.60,32.25,9.939,
07/02/2025,12:22:38.22,-505.37,-33.20,872.07,3.34,-0.19,2.23,65.40,-48.15,-3.75,32.01,9.939,
07/02/2025,12:22:38.32,-520.51,-34.67,881.84,0.24,-2.22,0.85,65.70,-50.10,-4.20,32.39,9.939,
07/02/2025,12:22:38.42,-520.51,-38.09,866.70,0.72,-1.53,3.27,64.35,-49.50,-3.15,32.01,9.937,
07/02/2025,12:22:38.52,-511.23,-30.27,888.18,1.95,-0.61,0.85,66.75,-48.90,-3.0,32.01,9.937,
07/02/2025,12:22:38.62,-532.71,-42.48,877.44,-1.36,-2.24,0.50,66.45,-49.65,-4.20,32.01,9.938,
07/02/2025,12:22:38.73,-520.02,-40.04,876.95,1.19,-1.42,1.15,64.65,-49.35,-4.80,32.10,9.938,
07/02/2025,12:22:38.83,-514.65,-41.02,876.46,1.46,-2.79,1.46,65.40,-49.35,-2.25,32.10,9.938,
07/02/2025,12:22:38.93,-497.56,-42.97,873.54,0.22,-2.51,0.81,66.30,-48.75,-3.90,32.29,9.938,
07/02/2025,12:22:39.03,-509.28,-30.27,862.79,1.62,-0.68,1.82,64.80,-49.20,-2.55,31.77,9.938,
07/02/2025,12:22:39.13,-526.37,-33.20,879.88,-1.37,-0.31,0.02,64.80,-50.25,-4.65,32.01,9.938,
07/02/2025,12:22:39.23,-517.58,-46.39,867.19,-0.24,-1.09,1.0,64.05,-48.75,-3.90,32.10,9.938,
07/02/2025,12:22:39.33,-523.93,-36.13,876.95,2.57,0.34,1.76,66.60,-48.75,-3.90,32.06,9.938,
07/02/2025,12:22:39.43,-505.86,-41.99,875.0,-0.66,0.45,-2.83,65.40,-49.65,-2.70,32.10,9.939,
07/02/2025,12:22:39.53,-507.32,-36.13,882.81,-2.05,-0.27,0.73,65.70,-49.65,-3.0,32.10,9.939,
07/02/2025,12:22:39.63,-517.58,-40.53,876.95,-0.56,-2.47,1.30,64.95,-48.60,-4.50,32.10,9.939,
07/02/2025,12:22:39.73,-514.65,-35.64,882.32,0.11,0.43,0.25,67.05,-48.75,-3.60,32.01,9.937,
07/02/2025,12:22:39.83,-522.46,-36.13,869.63,-0.92,-0.38,0.59,66.60,-48.30,-2.85,32.25,9.937,
07/02/2025,12:22:39.94,-511.72,-39.55,891.11,-1.20,0.11,-4.0,64.65,-49.35,-3.45,32.10,9.937,
07/02/2025,12:22:40.04,-509.28,-38.09,885.74,-1.56,-1.97,-0.59,65.40,-48.90,-2.70,32.20,9.937,
07/02/2025,12:22:40.14,-518.07,-34.18,872.56,-1.45,-0.11,-2.70,65.70,-49.35,-4.20,32.10,9.937,
07/02/2025,12:22:40.24,-516.60,-41.99,872.07,-0.73,-1.34,0.36,65.70,-49.65,-3.0,31.86,9.938,
07/02/2025,12:22:40.34,-511.72,-47.36,872.56,-2.27,0.98,-2.89,65.10,-48.30,-3.90,32.01,9.938,
07/02/2025,12:22:40.44,-508.79,-44.92,878.91,-0.37,0.89,1.71,65.40,-49.65,-3.0,31.91,9.938,
07/02/2025,12:22:40.54,-515.14,-36.62,883.79,-0.62,-3.14,1.82,65.85,-49.50,-2.55,32.01,9.938,
07/02/2025,12:22:40.64,-526.37,-34.18,875.0,1.68,-1.54,1.76,66.60,-49.50,-3.15,32.10,9.938,
07/02/2025,12:22:40.74,-521.00,-35.64,882.81,-0.56,-1.55,0.11,65.40,-48.90,-3.0,31.91,9.938,
07/02/2025,12:22:40.84,-505.86,-37.11,875.49,1.77,-3.99,3.78,66.0,-48.90,-6.0,32.29,9.938,
07/02/2025,12:22:40.94,-514.65,-47.36,887.21,0.76,-0.61,1.72,65.10,-48.75,-2.85,31.86,9.936,
07/02/2025,12:22:41.04,-516.60,-27.34,865.23,0.38,-2.09,0.44,64.80,-47.55,-3.60,32.10,9.937,
07/02/2025,12:22:41.14,-523.93,-44.43,868.16,0.94,0.57,4.47,65.40,-49.35,-3.0,32.25,9.937,
07/02/2025,12:22:41.25,-536.13,-24.90,871.58,-0.77,0.15,1.0,65.40,-51.60,-2.25,32.10,9.937,
07/02/2025,12:22:41.35,-509.77,-40.04,869.63,-0.74,0.71,0.52,65.10,-49.50,-2.85,32.25,9.937,
07/02/2025,12:22:41.45,-511.72,-39.55,889.65,-0.47,-0.13,-3.27,64.35,-49.95,-2.85,32.10,9.937,
07/02/2025,12:22:41.55,-522.95,-47.36,882.81,-1.39,-0.11,-3.09,65.70,-48.60,-3.75,32.10,9.937,
07/02/2025,12:22:41.65,-508.79,-38.57,880.86,-0.47,0.0,-0.31,65.70,-48.60,-2.25,31.86,9.937,
07/02/2025,12:22:41.75,-518.55,-24.90,876.46,-0.66,1.60,-0.09,65.55,-49.95,-3.60,32.25,9.937,
07/02/2025,12:22:41.85,-517.09,-39.55,874.02,1.37,1.41,0.77,63.60,-49.50,-4.35,32.10,9.938,
07/02/2025,12:22:41.95,-504.88,-44.43,894.53,-1.27,-0.37,-1.17,65.85,-49.20,-2.85,32.10,9.938,
07/02/2025,12:22:42.05,-509.77,-48.34,882.81,-1.11,2.11,-2.33,65.85,-51.45,-3.90,31.91,9.938,
07/02/2025,12:22:42.15,-517.58,-33.69,870.12,-1.16,1.93,-1.48,65.40,-49.35,-3.75,31.91,9.938,
07/02/2025,12:22:42.25,-514.16,-41.99,866.21,-0.19,-0.45,0.76,65.70,-48.60,-3.0,31.91,9.936,
07/02/2025,12:22:42.35,-532.23,-41.02,871.58,-0.88,-0.81,-1.32,64.80,-48.75,-3.60,32.01,9.936,
07/02/2025,12:22:42.45,-516.60,-44.43,863.77,0.47,-3.56,0.30,66.45,-48.60,-4.50,31.91,9.936,
07/02/2025,12:22:42.56,-516.11,-31.25,880.86,2.01,-1.31,0.93,64.35,-49.95,-2.85,32.10,9.936,
07/02/2025,12:22:42.66,-517.09,-30.27,879.88,1.71,-0.63,1.93,64.80,-48.30,-3.15,31.91,9.937,
07/02/2025,12:22:42.76,-504.39,-37.60,878.42,1.94,-0.66,-1.89,65.55,-49.20,-3.60,32.20,9.937,
07/02/2025,12:22:42.86,-514.16,-51.27,878.91,0.14,-3.55,3.09,65.55,-49.50,-3.60,31.77,9.937,
07/02/2025,12:22:42.96,-516.11,-25.39,877.44,1.08,-3.24,0.86,66.60,-49.20,-3.15,31.86,9.937,
07/02/2025,12:22:43.06,-511.72,-44.43,878.42,-0.34,-0.50,-0.16,65.10,-48.0,-1.35,32.10,9.937,
07/02/2025,12:22:43.16,-508.79,-38.57,871.58,1.68,-1.15,3.98,65.55,-49.20,-3.15,32.10,9.937,
07/02/2025,12:22:43.26,-520.02,-32.71,873.05,-0.53,-1.34,-1.47,64.80,-48.75,-2.55,32.06,9.937,
07/02/2025,12:22:43.36,-502.93,-38.09,881.35,-0.02,0.17,-1.33,64.65,-48.60,-4.20,32.20,9.937,
07/02/2025,12:22:43.46,-515.63,-33.69,878.91,-2.11,1.65,-0.65,64.95,-50.10,-2.25,32.01,9.938,
07/02/2025,12:22:43.56,-509.77,-32.71,887.21,-2.11,-0.89,-2.18,66.30,-48.75,-5.10,31.77,9.936,
07/02/2025,12:22:43.66,-521.00,-44.43,887.21,0.11,0.49,-1.35,65.70,-49.35,-3.0,31.91,9.936,
07/02/2025,12:22:43.77,-526.37,-22.46,884.77,0.16,-0.23,-3.18,66.30,-49.50,-2.85,31.91,9.936,
07/02/2025,12:22:43.87,-509.77,-28.81,880.37,-1.49,1.11,0.85,65.10,-49.50,-3.15,32.10,9.936,
07/02/2025,12:22:43.97,-513.18,-35.64,875.0,-0.73,0.21,0.05,67.50,-49.65,-2.70,32.10,9.936,
07/02/2025,12:22:44.07,-513.67,-34.18,874.02,-1.34,0.44,-1.75,65.55,-49.50,-3.90,31.67,9.936,
07/02/2025,12:22:44.17,-506.35,-38.57,871.09,0.17,-2.87,1.82,65.55,-49.95,-2.10,31.91,9.937,
07/02/2025,12:22:44.27,-524.90,-40.53,879.39,-1.14,0.86,-0.26,66.60,-49.20,-2.55,31.77,9.937,
07/02/2025,12:22:44.37,-510.74,-41.02,872.07,0.56,-2.36,-1.66,65.40,-48.90,-3.0,32.20,9.937,
07/02/2025,12:22:44.47,-517.09,-38.57,868.65,0.62,-0.69,2.09,65.40,-48.90,-3.0,32.01,9.937,
07/02/2025,12:22:44.57,-524.90,-44.92,879.39,0.37,-2.26,1.48,65.10,-49.95,-3.60,32.25,9.937,
07/02/2025,12:22:44.67,-534.18,-39.55,871.58,0.81,-1.76,1.80,65.85,-49.20,-3.60,31.91,9.937,
07/02/2025,12:22:44.77,-522.46,-33.69,874.02,-1.59,1.67,-0.46,66.45,-48.90,-2.25,32.20,9.935,
07/02/2025,12:22:44.87,-511.23,-46.88,874.02,-1.33,2.27,0.01,64.95,-49.35,-4.50,32.01,9.936,
07/02/2025,12:22:44.97,-521.00,-37.60,860.35,-0.05,0.51,1.47,65.85,-50.25,-2.55,32.01,9.936,
07/02/2025,12:22:45.08,-505.37,-43.46,878.42,-0.79,-0.86,1.47,65.55,-48.75,-2.85,31.77,9.936,
07/02/2025,12:22:45.18,-515.14,-36.62,873.54,-2.66,2.11,-0.57,65.70,-49.35,-4.20,31.91,9.936,
07/02/2025,12:22:45.28,-517.58,-36.13,871.58,-0.39,-0.40,-1.55,64.80,-48.30,-3.60,32.01,9.936,
07/02/2025,12:22:45.38,-505.86,-27.34,884.77,1.67,-4.63,2.69,65.85,-48.30,-2.10,32.10,9.936,
07/02/2025,12:22:45.48,-522.46,-26.37,874.51,0.56,-1.43,1.15,66.0,-49.35,-3.0,31.91,9.936,
07/02/2025,12:22:45.58,-510.74,-47.85,877.44,0.50,-0.79,-0.34,66.75,-48.15,-3.75,32.25,9.936,
07/02/2025,12:22:45.68,-513.67,-42.48,869.63,0.36,1.93,0.77,66.45,-49.35,-3.75,31.67,9.936,
07/02/2025,12:22:45.78,-521.00,-33.69,882.81,1.29,0.14,0.92,65.10,-48.0,-4.35,32.10,9.937,
07/02/2025,12:22:45.88,-512.21,-31.74,881.84,1.18,0.34,1.71,65.10,-50.25,-2.55,32.10,9.937,
07/02/2025,12:22:45.98,-515.63,-37.60,880.86,0.03,1.76,-0.08,64.95,-49.65,-4.20,31.91,9.937,
07/02/2025,12:22:46.08,-518.07,-30.76,873.05,-0.40,0.66,-2.22,64.95,-48.60,-2.25,32.10,9.935,
07/02/2025,12:22:46.18,-510.74,-48.34,879.88,-3.44,1.56,0.12,65.10,-49.20,-4.35,32.10,9.935,
07/02/2025,12:22:46.28,-507.81,-37.11,875.49,-0.54,3.70,-0.95,65.55,-49.50,-3.60,32.01,9.935,
07/02/2025,12:22:46.39,-521.48,-31.25,872.07,-0.77,1.48,-0.28,66.45,-48.15,-2.25,31.72,9.936,
07/02/2025,12:22:46.49,-516.11,-32.71,871.09,-0.53,0.87,-0.22,67.20,-50.40,-4.20,31.91,9.936,
07/02/2025,12:22:46.59,-512.21,-18.55,870.12,-0.27,2.67,0.22,66.60,-49.20,-3.15,31.72,9.936,
07/02/2025,12:22:46.69,-524.41,-22.95,870.61,0.75,-0.12,1.26,65.70,-48.90,-4.80,32.01,9.936,
07/02/2025,12:22:46.79,-522.46,-30.76,866.70,0.15,-0.11,0.15,67.35,-49.95,-2.10,32.10,9.936,
07/02/2025,12:22:46.89,-518.07,-30.27,881.35,1.30,-1.10,0.12,66.75,-49.35,-4.50,31.86,9.936,
07/02/2025,12:22:46.99,-519.04,-34.67,872.07,-0.71,-0.08,1.57,65.70,-48.90,-4.50,31.91,9.936,
07/02/2025,12:22:47.09,-515.14,-44.92,874.02,0.78,-0.49,1.98,66.0,-48.15,-3.45,31.91,9.936,
07/02/2025,12:22:47.19,-505.37,-41.50,867.19,-0.54,-0.85,-2.44,66.60,-48.75,-4.65,31.91,9.936,
07/02/2025,12:22:47.29,-508.30,-45.41,880.86,-1.37,0.51,-0.02,65.85,-48.30,-3.60,31.77,9.935,
07/02/2025,12:22:47.39,-515.14,-39.55,880.86,-1.79,0.82,0.37,66.30,-48.30,-3.90,32.01,9.935,
07/02/2025,12:22:47.49,-524.90,-26.86,883.30,0.25,1.21,1.73,64.80,-50.25,-3.15,32.20,9.935,
07/02/2025,12:22:47.60,-517.09,-35.64,878.91,-0.43,0.37,-1.15,64.95,-48.60,-3.45,32.10,9.935,
07/02/2025,12:22:47.70,-518.55,-36.62,868.16,0.40,1.27,0.89,65.10,-49.50,-2.85,32.06,9.935,
07/02/2025,12:22:47.80,-523.44,-44.92,870.61,3.75,-2.03,0.81,66.30,-49.95,-4.35,32.01,9.935,
07/02/2025,12:22:47.90,-521.48,-40.04,877.93,-0.30,-2.08,1.39,66.45,-48.15,-4.50,32.10,9.935,
07/02/2025,12:22:48.00,-514.65,-40.53,873.05,1.52,-0.20,3.53,65.55,-47.55,-3.60,31.67,9.936,
07/02/2025,12:22:48.10,-500.98,-28.81,876.95,2.40,-0.80,1.44,65.70,-49.65,-4.20,32.01,9.936,
07/02/2025,12:22:48.20,-515.14,-31.74,880.37,-1.58,-1.04,0.54,65.10,-49.50,-2.10,31.91,9.936,
07/02/2025,12:22:48.30,-521.48,-41.99,874.51,0.20,1.34,0.42,65.10,-49.50,-3.15,31.91,9.936,
07/02/2025,12:22:48.40,-510.25,-47.85,878.91,0.0,1.69,0.35,65.55,-49.95,-3.15,31.91,9.936,
07/02/2025,12:22:48.50,-517.58,-28.81,875.98,-0.72,2.15,-2.04,67.05,-48.30,-3.15,31.91,9.936,
07/02/2025,12:22:48.60,-517.58,-45.90,881.35,-1.73,0.15,-0.15,65.85,-49.95,-1.80,31.86,9.935,
07/02/2025,12:22:48.70,-529.30,-39.55,875.98,-0.38,0.31,-1.96,65.40,-48.90,-3.0,31.67,9.935,
07/02/2025,12:22:48.80,-512.70,-42.48,872.56,-0.04,-0.12,1.41,65.85,-50.70,-3.60,31.91,9.935,
07/02/2025,12:22:48.91,-504.39,-26.86,886.23,0.28,-0.69,0.93,65.70,-49.35,-4.20,31.58,9.935,
07/02/2025,12:22:49.01,-515.63,-33.69,864.75,1.13,0.96,2.37,64.05,-49.50,-2.10,31.72,9.935,
07/02/2025,12:22:49.11,-504.88,-28.81,880.86,2.49,-0.34,2.61,64.80,-48.30,-3.60,32.01,9.935,
07/02/2025,12:22:49.21,-507.81,-40.53,877.44,1.85,-0.75,0.60,65.40,-50.40,-1.95,32.01,9.935,
07/02/2025,12:22:49.31,-505.86,-42.97,882.81,-1.27,1.61,-0.63,65.10,-49.95,-3.60,32.06,9.935,
07/02/2025,12:22:49.41,-517.09,-44.43,869.14,0.06,0.60,0.56,67.05,-48.30,-2.10,31.72,9.935,
07/02/2025,12:22:49.51,-514.16,-37.11,876.46,-1.08,-0.09,-0.74,66.30,-49.50,-3.15,31.86,9.936,
07/02/2025,12:22:49.61,-517.58,-29.30,875.0,1.35,1.19,-1.31,65.40,-49.65,-2.25,31.72,9.936,
07/02/2025,12:22:49.71,-516.11,-39.06,881.35,-1.22,-0.96,-1.64,66.45,-49.65,-4.20,31.86,9.936,
07/02/2025,12:22:49.81,-512.21,-48.83,879.39,-2.76,-0.57,-0.44,65.70,-49.35,-4.20,32.01,9.934,
07/02/2025,12:22:49.91,-519.04,-42.97,880.86,-0.02,-0.45,1.74,65.10,-48.0,-3.15,31.91,9.934,
07/02/2025,12:22:50.01,-516.60,-40.04,879.88,0.75,-2.37,-1.31,66.0,-49.65,-2.25,31.77,9.934,
07/02/2025,12:22:50.11,-509.77,-26.86,872.07,-0.39,0.23,0.04,64.95,-48.90,-2.25,31.86,9.935,
07/02/2025,12:22:50.22,-504.88,-44.43,875.98,0.79,-1.64,2.73,66.0,-49.35,-3.75,31.77,9.935,
07/02/2025,12:22:50.32,-516.11,-40.53,879.39,-0.27,-1.55,-0.89,67.05,-49.20,-2.55,31.72,9.935,
07/02/2025,12:22:50.42,-514.65,-40.04,875.98,-0.18,0.45,-2.49,64.65,-48.90,-3.45,32.01,9.935,
07/02/2025,12:22:50.52,-518.55,-33.20,868.16,-1.16,3.59,-1.73,65.85,-48.75,-3.90,31.77,9.935,
07/02/2025,12:22:50.62,-523.93,-37.11,875.49,-0.34,-0.77,-1.47,65.85,-49.20,-4.35,31.91,9.935,
07/02/2025,12:22:50.72,-512.21,-37.11,868.65,0.25,3.13,0.34,65.40,-48.15,-3.45,31.91,9.935,
07/02/2025,12:22:50.82,-526.37,-40.53,876.46,-1.02,-0.48,-0.27,65.55,-48.0,-2.85,31.91,9.935,
07/02/2025,12:22:50.92,-523.44,-44.92,874.51,1.05,-2.45,0.83,65.55,-48.30,-3.60,31.67,9.935,
07/02/2025,12:22:51.02,-515.14,-33.20,887.21,-0.21,0.81,3.08,65.85,-48.0,-3.90,31.86,9.935,
07/02/2025,12:22:51.12,-509.77,-32.71,880.86,0.09,-1.65,0.46,65.55,-48.30,-2.10,31.91,9.934,
07/02/2025,12:22:51.22,-515.14,-38.57,875.0,0.82,0.40,-0.95,65.70,-51.30,-4.20,31.58,9.934,
07/02/2025,12:22:51.32,-518.07,-40.04,879.88,-1.22,-2.49,-0.33,65.70,-48.60,-3.0,31.91,9.934,
07/02/2025,12:22:51.42,-509.77,-41.99,875.49,-1.15,-1.23,-0.90,65.70,-49.65,-3.75,31.67,9.934,
07/02/2025,12:22:51.53,-513.18,-45.90,869.63,0.91,2.19,-2.20,64.80,-47.55,-2.55,31.86,9.934,
07/02/2025,12:22:51.63,-527.83,-47.36,874.02,1.11,0.40,-3.0,64.65,-48.90,-3.0,32.06,9.935,
07/02/2025,12:22:51.73,-510.25,-33.69,870.12,-1.19,0.24,-1.85,64.65,-46.95,-3.75,31.86,9.935,
07/02/2025,12:22:51.83,-521.00,-34.67,868.65,1.50,-3.60,1.53,65.85,-49.95,-3.90,31.77,9.935,
07/02/2025,12:22:51.93,-502.44,-35.64,868.16,1.04,0.21,2.54,66.45,-49.35,-4.50,32.01,9.935,
07/02/2025,12:22:52.03,-516.11,-35.64,868.65,-1.31,-1.92,1.69,66.30,-48.75,-2.85,32.06,9.935,
07/02/2025,12:22:52.13,-527.34,-43.95,882.81,-1.08,0.45,-0.15,66.0,-48.90,-3.45,31.58,9.935,
07/02/2025,12:22:52.23,-524.41,-42.97,873.54,-3.41,0.31,-0.53,65.85,-48.0,-3.15,31.86,9.935,
07/02/2025,12:22:52.33,-506.84,-41.99,879.39,-3.30,0.91,-1.37,66.75,-48.60,-3.75,31.53,9.935,
07/02/2025,12:22:52.43,-512.21,-49.32,876.95,0.31,0.59,-2.05,65.55,-48.30,-5.40,31.91,9.934,
07/02/2025,12:22:52.53,-516.60,-40.53,870.61,-0.50,-0.10,-1.15,65.70,-49.35,-6.0,32.01,9.934,
07/02/2025,12:22:52.63,-521.00,-52.73,875.0,2.47,-2.15,2.90,65.85,-50.70,-3.60,31.72,9.934,
07/02/2025,12:22:52.74,-512.70,-33.69,873.54,0.50,-2.11,-0.52,65.10,-48.0,-3.15,31.86,9.934,
07/02/2025,12:22:52.84,-517.09,-32.71,874.51,0.53,-0.77,2.20,65.85,-49.50,-2.55,31.67,9.934,
07/02/2025,12:22:52.94,-509.28,-32.71,875.0,-1.47,-1.68,2.58,66.75,-48.90,-2.25,31.91,9.934,
07/02/2025,12:22:53.04,-509.77,-39.06,866.70,-1.93,-0.34,-1.07,65.40,-48.90,-3.45,31.86,9.934,
07/02/2025,12:22:53.14,-523.93,-44.43,871.09,-1.86,0.27,-0.95,65.55,-51.0,-3.60,31.86,9.934,
07/02/2025,12:22:53.24,-524.41,-38.57,884.77,-0.97,0.70,-1.11,65.10,-49.20,-3.60,31.67,9.935,
07/02/2025,12:22:53.34,-520.02,-36.62,872.56,-0.49,1.31,-1.03,66.45,-49.65,-2.70,32.10,9.935,
07/02/2025,12:22:53.44,-525.39,-38.09,882.32,0.69,-1.21,0.91,67.20,-48.90,-2.70,31.72,9.935,
07/02/2025,12:22:53.54,-522.46,-35.16,871.58,0.13,-0.02,-0.45,65.85,-48.30,-2.10,31.91,9.935,
07/02/2025,12:22:53.64,-523.93,-33.20,878.42,-1.21,-4.18,2.33,65.55,-49.95,-2.55,31.72,9.935,
07/02/2025,12:22:53.74,-525.88,-47.85,876.46,-0.97,0.48,-0.44,65.55,-49.20,-2.55,31.77,9.934,
07/02/2025,12:22:53.84,-525.39,-41.99,874.51,0.0,-1.06,-2.50,64.80,-49.50,-2.85,31.86,9.934,
07/02/2025,12:22:53.94,-505.86,-26.37,871.09,-1.82,-0.25,-0.11,65.55,-49.50,-4.35,31.91,9.934,
07/02/2025,12:22:54.05,-526.86,-30.27,873.54,-0.75,1.73,-1.01,65.55,-49.95,-3.15,31.86,9.934,
07/02/2025,12:22:54.15,-522.46,-41.02,884.28,1.38,0.22,-0.02,66.0,-49.35,-2.25,31.77,9.934,
07/02/2025,12:22:54.25,-521.48,-35.64,876.46,0.61,-0.63,2.06,66.30,-48.30,-3.60,32.01,9.934,
07/02/2025,12:22:54.35,-508.79,-45.90,881.84,-0.40,0.59,0.46,65.40,-48.60,-2.70,31.58,9.934,
07/02/2025,12:22:54.45,-519.04,-28.32,883.30,-0.37,1.06,1.15,64.65,-49.35,-3.45,31.67,9.934,
07/02/2025,12:22:54.55,-511.72,-43.95,883.30,2.19,1.73,2.56,64.80,-48.30,-3.15,31.91,9.934,
07/02/2025,12:22:54.65,-524.41,-33.20,875.0,-0.05,-1.21,0.03,65.40,-49.35,-4.50,31.67,9.934,
07/02/2025,12:22:54.75,-517.09,-31.74,873.05,2.32,0.29,-3.24,66.60,-49.95,-3.15,31.91,9.935,
07/02/2025,12:22:54.85,-507.81,-39.55,872.56,-0.69,-0.75,1.80,66.30,-49.20,-2.55,31.72,9.935,
07/02/2025,12:22:54.95,-507.81,-38.09,875.49,-0.26,-1.36,2.40,64.95,-50.10,-2.25,32.01,9.935,
07/02/2025,12:22:55.05,-514.65,-25.39,869.63,1.94,-1.04,-1.04,65.70,-48.15,-4.80,31.91,9.933,
07/02/2025,12:22:55.15,-531.74,-35.64,885.25,1.79,-2.21,1.32,66.0,-49.65,-2.25,31.91,9.933,
07/02/2025,12:22:55.26,-506.84,-40.53,879.88,0.07,-1.77,-3.24,65.70,-48.90,-3.75,31.72,9.934,
07/02/2025,12:22:55.36,-501.95,-28.81,877.93,-0.13,-1.65,1.89,64.80,-50.70,-3.90,31.67,9.934,
07/02/2025,12:22:55.46,-502.93,-27.83,878.42,0.96,1.08,-0.89,64.95,-50.10,-2.25,31.67,9.934,
07/02/2025,12:22:55.56,-517.58,-38.09,868.16,-1.18,1.28,-0.14,64.20,-50.85,-3.45,31.91,9.934,
07/02/2025,12:22:55.66,-503.42,-35.64,875.0,-0.59,-1.65,1.45,64.65,-48.60,-4.20,31.67,9.934,
07/02/2025,12:22:55.76,-513.18,-32.71,868.65,0.11,-0.30,1.32,65.55,-48.30,-3.90,31.72,9.934,
07/02/2025,12:22:55.86,-524.41,-36.13,876.95,-0.82,-1.50,0.04,65.55,-49.20,-3.90,31.72,9.934,
07/02/2025,12:22:55.96,-510.74,-43.46,877.44,1.89,-2.97,1.03,65.70,-49.35,-2.70,31.86,9.934,
07/02/2025,12:22:56.06,-516.11,-34.18,875.98,-3.04,0.31,-1.40,65.70,-49.65,-3.75,31.72,9.934,
07/02/2025,12:22:56.16,-518.55,-30.76,873.54,0.40,0.92,-5.22,65.70,-48.90,-4.80,31.77,9.934,
07/02/2025,12:22:56.26,-511.23,-34.18,878.91,-1.79,1.38,-1.04,66.45,-48.90,-4.50,31.86,9.935,
07/02/2025,12:22:56.36,-513.67,-36.13,873.54,-1.23,0.64,-1.24,64.65,-49.35,-3.0,31.48,9.933,
07/02/2025,12:22:56.46,-516.60,-40.53,889.16,-1.41,0.05,-0.36,65.85,-50.25,-2.85,31.91,9.933,
07/02/2025,12:22:56.57,-520.51,-42.97,883.30,-0.59,-0.22,1.81,64.80,-50.25,-2.10,31.53,9.933,
07/02/2025,12:22:56.67,-513.18,-35.64,871.58,0.55,-1.64,1.87,64.05,-48.30,-4.35,31.91,9.933,
07/02/2025,12:22:56.77,-517.09,-28.81,871.58,0.70,-0.01,1.34,65.55,-47.55,-4.35,31.86,9.934,
07/02/2025,12:22:56.87,-518.55,-35.16,878.91,0.23,1.24,1.69,66.60,-48.75,-4.65,31.91,9.934,
07/02/2025,12:22:56.97,-513.67,-39.06,877.44,0.18,-1.05,1.19,67.20,-48.90,-3.0,31.86,9.934,
07/02/2025,12:22:57.07,-505.86,-38.09,873.05,-1.21,1.06,-3.62,65.40,-50.40,-3.75,31.67,9.934,
07/02/2025,12:22:57.17,-510.74,-37.60,878.91,-1.73,0.97,-2.53,66.0,-48.15,-4.50,31.86,9.934,
07/02/2025,12:22:57.27,-514.65,-37.60,868.65,-1.28,-2.25,-0.74,66.45,-50.10,-3.0,31.53,9.934,
07/02/2025,12:22:57.37,-514.16,-34.18,878.91,1.50,-1.25,1.48,66.60,-48.30,-3.15,31.86,9.934,
07/02/2025,12:22:57.47,-517.09,-33.69,876.46,1.42,-1.63,2.73,66.30,-49.95,-3.15,31.38,9.934,
07/02/2025,12:22:57.57,-508.79,-31.25,877.93,0.23,-0.44,2.50,64.80,-49.50,-3.15,31.72,9.933,
07/02/2025,12:22:57.67,-517.58,-29.79,878.42,-0.36,-3.37,1.45,64.65,-50.10,-2.70,31.77,9.933,
07/02/2025,12:22:57.77,-512.21,-26.37,875.98,1.38,-2.09,-0.32,65.85,-49.95,-3.15,31.86,9.933,
07/02/2025,12:22:57.88,-515.14,-36.13,884.28,0.85,1.13,-1.11,65.40,-49.35,-3.75,31.77,9.933,
07/02/2025,12:22:57.98,-519.04,-38.09,873.54,-0.10,-1.55,-3.39,66.45,-49.35,-4.20,31.72,9.933,
07/02/2025,12:22:58.08,-500.98,-23.44,887.21,-0.70,0.78,-0.06,65.10,-49.50,-2.10,31.77,9.933,
07/02/2025,12:22:58.18,-518.07,-31.25,865.72,-1.55,2.01,-2.13,64.65,-48.90,-2.70,31.72,9.933,
07/02/2025,12:22:58.28,-518.07,-27.34,871.09,0.01,-2.37,1.76,66.30,-48.30,-1.35,31.91,9.934,
07/02/2025,12:22:58.38,-511.72,-35.16,877.44,-0.27,-0.43,1.10,64.95,-49.35,-4.50,31.77,9.934,
07/02/2025,12:22:58.48,-504.39,-27.83,878.42,1.69,-0.17,0.86,64.65,-48.90,-2.70,31.72,9.934,
07/02/2025,12:22:58.58,-505.86,-36.13,880.86,0.65,-0.59,-0.17,65.40,-48.60,-2.70,31.72,9.934,
07/02/2025,12:22:58.68,-516.11,-22.95,869.14,-0.37,-1.53,1.18,65.40,-48.60,-2.70,31.67,9.934,
07/02/2025,12:22:58.78,-512.21,-30.76,884.28,-1.06,0.31,0.27,63.90,-48.90,-1.95,31.72,9.934,
07/02/2025,12:22:58.88,-513.67,-39.55,880.37,-1.85,0.18,0.24,64.65,-49.65,-2.70,31.72,9.933,
07/02/2025,12:22:58.98,-506.35,-5.86,877.44,-2.79,-0.69,-1.97,65.40,-49.35,-3.45,32.01,9.933,
07/02/2025,12:22:59.08,-515.63,-39.06,875.49,0.32,0.41,3.18,65.55,-49.50,-3.90,31.77,9.933,
07/02/2025,12:22:59.19,-510.74,-33.20,869.63,0.60,-1.37,1.40,64.80,-48.75,-3.90,31.72,9.933,
07/02/2025,12:22:59.29,-516.60,-37.60,864.75,0.56,-2.04,-0.73,64.80,-49.50,-3.15,31.72,9.933,
07/02/2025,12:22:59.39,-521.48,-43.46,881.84,2.08,-1.04,0.61,66.0,-49.35,-2.70,31.86,9.933,
07/02/2025,12:22:59.49,-524.41,-41.02,875.0,-1.76,-0.40,0.08,66.0,-48.60,-1.95,31.53,9.933,
07/02/2025,12:22:59.59,-513.67,-36.62,874.02,-1.85,1.23,-1.69,65.10,-50.70,-3.90,31.77,9.933,
07/02/2025,12:22:59.69,-521.48,-39.55,872.07,-0.59,1.18,-3.56,65.10,-49.95,-3.60,31.72,9.933,
07/02/2025,12:22:59.79,-516.60,-30.76,877.44,2.27,-1.98,2.53,66.0,-48.15,-3.45,31.67,9.934,
07/02/2025,12:22:59.89,-509.28,-25.39,866.70,-0.08,-2.48,2.43,65.70,-48.15,-2.25,31.72,9.934,
07/02/2025,12:22:59.99,-507.32,-42.97,877.44,-0.01,-1.29,-2.99,64.35,-48.75,-2.85,31.91,9.934,
07/02/2025,12:23:00.09,-512.21,-38.57,879.88,0.79,0.59,-2.09,65.85,-48.30,-3.60,31.77,9.934,
07/02/2025,12:23:00.19,-507.81,-24.90,871.09,0.37,0.21,0.66,65.40,-49.35,-3.0,31.72,9.933,
07/02/2025,12:23:00.29,-509.28,-47.36,872.56,-0.79,3.51,0.16,65.40,-48.90,-2.70,31.86,9.933,
07/02/2025,12:23:00.39,-514.16,-38.09,874.02,-0.63,0.89,-1.04,66.0,-49.35,-3.45,31.53,9.933,
07/02/2025,12:23:00.50,-511.23,-29.79,877.44,0.73,-1.24,2.25,64.80,-48.30,-1.35,31.58,9.933,
07/02/2025,12:23:00.60,-511.23,-36.62,873.54,0.20,-2.60,-0.08,65.85,-49.50,-3.15,31.38,9.933,
07/02/2025,12:23:00.70,-516.60,-34.18,872.07,1.94,-2.36,0.83,64.95,-49.65,-3.45,32.01,9.933,
07/02/2025,12:23:00.80,-503.42,-33.69,881.84,0.79,-0.96,-0.51,66.30,-49.95,-2.10,31.67,9.933,
07/02/2025,12:23:00.90,-511.23,-40.04,874.51,0.59,1.74,-2.16,65.55,-49.20,-3.90,31.58,9.933,
07/02/2025,12:23:01.00,-518.55,-36.62,874.02,-0.91,-0.64,-0.16,64.35,-49.20,-2.55,31.72,9.933,
07/02/2025,12:23:01.10,-512.70,-38.57,875.0,-1.08,2.17,-2.27,64.65,-49.35,-3.0,31.58,9.933,
07/02/2025,12:23:01.20,-504.88,-41.02,874.51,-1.08,1.0,-0.70,65.55,-49.20,-3.15,31.77,9.933,
07/02/2025,12:23:01.30,-509.77,-28.32,879.88,2.02,0.16,0.39,66.30,-50.25,-3.60,31.72,9.934,
07/02/2025,12:23:01.40,-524.41,-38.09,880.37,1.79,-0.83,-0.16,65.10,-48.30,-3.15,31.72,9.934,
07/02/2025,12:23:01.50,-514.16,-26.86,887.70,-0.35,-0.03,1.66,65.55,-49.20,-2.55,31.53,9.932,
07/02/2025,12:23:01.60,-512.21,-40.04,872.56,1.21,-0.95,-1.02,64.05,-48.0,-4.65,31.72,9.932,
07/02/2025,12:23:01.70,-515.63,-24.90,872.56,-0.54,1.03,-0.11,66.60,-49.95,-2.55,31.53,9.933,
07/02/2025,12:23:01.81,-521.48,-39.06,885.74,0.05,0.82,-0.08,64.95,-49.65,-2.70,31.67,9.933,
07/02/2025,12:23:01.91,-514.65,-45.41,887.70,-1.82,1.98,-0.09,66.75,-49.35,-3.45,31.58,9.933,
07/02/2025,12:23:02.01,-507.32,-30.27,871.09,0.76,-0.16,-0.05,65.40,-49.65,-3.75,31.86,9.933,
07/02/2025,12:23:02.11,-520.02,-35.16,872.07,-0.47,-1.75,2.24,65.55,-49.20,-2.55,31.58,9.933,
07/02/2025,12:23:02.21,-516.60,-37.11,878.91,0.60,-0.44,2.78,65.70,-49.65,-1.95,31.72,9.933,
07/02/2025,12:23:02.31,-516.60,-26.86,878.91,-1.53,0.10,-1.67,65.55,-48.75,-3.90,31.91,9.933,
07/02/2025,12:23:02.41,-520.02,-44.92,869.63,1.68,1.40,0.50,64.05,-50.25,-3.60,31.67,9.933,
07/02/2025,12:23:02.51,-509.77,-27.34,884.77,-0.34,0.89,-2.85,66.60,-49.20,-4.35,31.91,9.933,
07/02/2025,12:23:02.61,-509.28,-41.50,883.30,-1.63,0.40,0.48,67.20,-49.65,-2.70,31.53,9.933,
07/02/2025,12:23:02.71,-511.72,-41.02,875.49,-0.69,0.67,0.41,66.60,-48.0,-3.15,31.91,9.934,
07/02/2025,12:23:02.81,-502.93,-31.74,866.70,1.97,-1.66,0.98,65.70,-48.60,-3.75,31.67,9.932,
07/02/2025,12:23:02.91,-506.35,-30.76,871.09,1.94,1.98,3.76,64.80,-49.20,-2.10,31.53,9.932,
07/02/2025,12:23:03.01,-518.07,-44.43,872.56,-1.34,1.37,0.72,63.90,-48.90,-3.75,31.48,9.932,
07/02/2025,12:23:03.12,-528.81,-37.11,862.79,-1.44,0.04,-1.02,64.80,-49.20,-2.85,31.91,9.933,
07/02/2025,12:23:03.22,-510.74,-37.11,876.95,0.23,-0.21,1.05,64.95,-49.65,-2.70,31.48,9.933,
07/02/2025,12:23:03.32,-521.00,-44.92,878.42,0.53,1.11,1.52,64.80,-49.95,-3.15,31.77,9.933,
07/02/2025,12:23:03.42,-517.09,-44.43,880.86,1.72,-0.36,-2.25,66.30,-49.50,-2.85,31.67,9.933,
07/02/2025,12:23:03.52,-499.02,-41.02,878.42,-0.25,-2.06,0.27,65.70,-49.65,-1.95,31.86,9.933,
07/02/2025,12:23:03.62,-521.48,-29.30,875.98,0.72,-0.39,2.27,65.70,-49.35,-3.75,31.91,9.933,
07/02/2025,12:23:03.72,-535.64,-48.34,877.44,0.76,0.44,3.50,65.55,-48.75,-3.60,31.77,9.933,
07/02/2025,12:23:03.82,-516.11,-34.18,876.95,0.64,-1.19,-2.01,65.55,-49.50,-3.60,31.72,9.933,
07/02/2025,12:23:03.92,-521.00,-32.71,885.25,1.03,1.67,-0.97,65.55,-48.75,-3.15,31.53,9.933,
07/02/2025,12:23:04.02,-509.28,-35.64,869.63,-0.68,0.70,-3.75,65.85,-48.75,-2.55,31.72,9.932,
07/02/2025,12:23:04.12,-511.72,-35.16,893.07,-0.85,-1.71,-0.47,65.70,-47.85,-3.75,31.38,9.932,
07/02/2025,12:23:04.22,-499.51,-38.57,875.98,0.82,0.65,2.13,63.30,-49.20,-2.85,31.72,9.932,
07/02/2025,12:23:04.32,-513.67,-35.16,875.0,1.63,-0.53,1.79,65.85,-48.30,-3.60,31.72,9.932,
07/02/2025,12:23:04.43,-516.11,-33.69,876.46,-2.48,0.99,0.79,66.75,-48.60,-2.70,31.72,9.932,
07/02/2025,12:23:04.53,-514.65,-30.76,885.25,-1.12,-0.82,-3.38,64.80,-49.50,-2.85,31.58,9.932,
07/02/2025,12:23:04.63,-524.90,-29.30,879.88,-0.93,-0.77,-0.56,66.30,-49.20,-2.10,31.72,9.933,
07/02/2025,12:23:04.73,-518.07,-32.23,884.28,0.77,0.60,0.37,65.70,-49.35,-2.25,31.58,9.933,
07/02/2025,12:23:04.83,-502.93,-27.34,870.12,0.24,-1.31,0.96,66.0,-50.10,-4.20,31.48,9.933,
07/02/2025,12:23:04.93,-511.72,-42.48,872.07,0.86,0.74,-0.10,65.70,-49.65,-1.95,31.67,9.933,
07/02/2025,12:23:05.03,-515.63,-41.99,872.07,-1.04,1.89,-1.12,65.85,-49.50,-2.10,31.72,9.933,
07/02/2025,12:23:05.13,-525.88,-34.18,878.42,-1.16,2.65,-3.18,65.85,-49.20,-4.65,31.58,9.933,
07/02/2025,12:23:05.23,-528.32,-26.86,877.44,-0.80,-0.01,-0.25,66.45,-47.85,-3.75,31.67,9.933,
07/02/2025,12:23:05.33,-503.91,-37.60,874.51,-0.47,-0.01,-2.61,65.10,-48.0,-4.65,31.67,9.932,
07/02/2025,12:23:05.43,-521.97,-35.64,876.46,0.77,-0.39,-0.04,65.10,-48.30,-3.60,31.38,9.932,
07/02/2025,12:23:05.53,-520.02,-33.20,872.56,0.66,-1.54,3.18,66.0,-51.30,-3.0,31.72,9.932,
07/02/2025,12:23:05.63,-522.46,-39.06,878.91,0.46,-2.15,2.38,65.85,-48.75,-2.85,31.67,9.932,
07/02/2025,12:23:05.74,-504.88,-41.99,872.07,0.81,0.78,-2.69,64.65,-49.65,-3.0,31.72,9.932,
07/02/2025,12:23:05.84,-520.02,-39.06,887.21,-0.40,1.74,-1.99,65.85,-48.75,-3.60,31.72,9.932,
07/02/2025,12:23:05.94,-507.32,-26.86,876.46,-0.34,-2.03,1.17,64.95,-48.90,-4.20,31.72,9.932,
07/02/2025,12:23:06.04,-516.11,-31.74,884.77,0.56,-1.49,0.98,65.70,-48.90,-2.70,31.67,9.932,
07/02/2025,12:23:06.14,-511.23,-37.60,884.77,0.63,0.81,0.93,65.10,-49.95,-4.35,31.53,9.933,
07/02/2025,12:23:06.24,-516.60,-38.57,885.25,0.65,-2.37,2.79,66.0,-48.15,-2.25,31.72,9.933,
07/02/2025,12:23:06.34,-510.25,-36.62,875.0,-0.79,2.09,-1.24,64.20,-50.10,-4.20,31.58,9.933,
07/02/2025,12:23:06.44,-511.72,-24.41,878.42,0.14,-0.82,-3.26,64.95,-48.60,-3.0,31.67,9.933,
07/02/2025,12:23:06.54,-516.11,-28.81,876.95,-2.37,1.34,-4.27,64.65,-49.65,-3.0,31.38,9.933,
07/02/2025,12:23:06.64,-521.48,-42.97,877.93,2.39,-2.32,1.84,64.95,-49.35,-3.75,31.58,9.932,
07/02/2025,12:23:06.74,-522.46,-36.62,880.86,1.59,-2.95,1.40,65.85,-49.95,-1.35,31.38,9.932,
07/02/2025,12:23:06.84,-505.86,-33.20,877.44,0.38,0.56,1.89,65.55,-51.0,-2.85,31.86,9.932,
07/02/2025,12:23:06.94,-509.77,-34.18,879.39,1.48,-1.64,-0.47,65.55,-49.20,-4.35,31.72,9.932,
07/02/2025,12:23:07.05,-509.77,-22.46,883.30,-1.85,1.37,-4.02,64.35,-48.0,-2.85,31.48,9.932,
07/02/2025,12:23:07.15,-511.72,-32.71,880.37,-1.13,0.11,-1.03,65.10,-48.75,-2.85,31.72,9.932,
07/02/2025,12:23:07.25,-517.09,-45.90,875.49,-0.84,1.23,-0.91,65.55,-49.20,-2.85,31.72,9.932,
07/02/2025,12:23:07.35,-532.23,-43.46,872.56,-0.48,-2.60,2.61,64.95,-50.10,-3.75,31.58,9.932,
07/02/2025,12:23:07.45,-504.88,-38.57,889.65,1.20,0.13,-0.75,64.80,-51.0,-3.90,31.67,9.932,
07/02/2025,12:23:07.55,-515.14,-46.39,882.81,0.34,-0.24,1.92,65.10,-47.55,-2.55,31.67,9.933,
07/02/2025,12:23:07.65,-514.16,-37.11,875.98,0.46,2.68,-2.26,65.10,-49.95,-3.15,31.72,9.933,
07/02/2025,12:23:07.75,-516.11,-32.71,872.56,-1.86,-1.60,-1.74,65.10,-49.20,-3.90,31.67,9.933,
07/02/2025,12:23:07.85,-517.09,-41.99,877.93,-0.96,0.92,1.15,65.40,-50.10,-3.75,31.48,9.933,
07/02/2025,12:23:07.95,-513.67,-39.06,873.05,0.88,-2.76,2.46,64.65,-48.60,-2.25,31.72,9.932,
07/02/2025,12:23:08.05,-514.16,-33.20,881.84,-0.98,-2.61,3.17,66.30,-48.0,-3.90,31.38,9.932,
07/02/2025,12:23:08.15,-512.21,-38.09,869.63,1.56,-3.68,-0.85,66.45,-49.35,-4.20,31.67,9.932,
07/02/2025,12:23:08.26,-512.70,-29.30,876.46,-0.86,0.48,0.10,65.70,-49.65,-4.20,31.24,9.932,
07/02/2025,12:23:08.36,-521.48,-46.39,881.35,-0.91,-0.15,-1.92,67.05,-49.20,-2.55,31.86,9.932,
07/02/2025,12:23:08.46,-505.86,-38.57,878.42,-2.02,-1.07,2.21,64.20,-50.40,-3.45,31.53,9.932,
07/02/2025,12:23:08.56,-512.21,-45.41,878.42,0.35,-1.28,-1.81,65.85,-49.50,-2.55,31.67,9.932,
07/02/2025,12:23:08.66,-514.65,-27.83,876.46,-0.46,-0.34,0.26,63.60,-49.50,-4.35,31.48,9.932,
07/02/2025,12:23:08.76,-514.16,-54.69,868.65,-1.22,-0.85,-0.15,65.10,-49.20,-3.60,31.67,9.932,
07/02/2025,12:23:08.86,-511.72,-34.18,873.54,-1.15,-1.23,-1.26,65.40,-49.35,-3.0,31.48,9.932,
07/02/2025,12:23:08.96,-527.34,-34.18,877.44,-0.59,-0.25,-2.27,64.35,-49.20,-3.15,31.72,9.932,
07/02/2025,12:23:09.06,-507.32,-40.04,867.19,1.14,-0.70,3.24,64.95,-48.60,-3.0,31.53,9.933,
07/02/2025,12:23:09.16,-515.63,-43.95,878.91,2.41,-0.61,0.62,66.60,-49.50,-3.60,31.58,9.933,
07/02/2025,12:23:09.26,-514.16,-39.06,865.72,0.50,-2.02,2.08,64.65,-50.40,-2.25,31.72,9.933,
07/02/2025,12:23:09.36,-509.77,-19.53,880.37,0.31,-1.50,3.07,66.0,-48.90,-2.70,31.48,9.932,
07/02/2025,12:23:09.46,-512.70,-29.79,878.42,0.11,0.18,-0.89,65.70,-48.90,-3.0,31.72,9.932,
07/02/2025,12:23:09.57,-506.35,-25.88,885.74,-1.76,1.06,-2.76,65.85,-48.30,-3.15,31.48,9.932,
07/02/2025,12:23:09.67,-512.70,-30.76,875.49,0.53,-0.44,1.31,64.35,-47.55,-2.85,31.67,9.932,
07/02/2025,12:23:09.77,-510.74,-23.44,873.05,-0.73,-1.96,2.66,65.10,-49.50,-2.10,31.53,9.932,
07/02/2025,12:23:09.87,-511.72,-43.95,872.07,1.57,0.54,0.15,65.10,-49.20,-2.85,31.58,9.932,
07/02/2025,12:23:09.97,-515.63,-40.04,876.95,2.08,-0.82,-0.95,64.95,-48.60,-2.70,31.58,9.932,
07/02/2025,12:23:10.07,-527.34,-26.37,882.81,-0.35,0.61,-0.25,66.30,-48.30,-2.85,31.48,9.932,
07/02/2025,12:23:10.17,-504.88,-34.67,874.51,-2.86,1.18,-1.93,65.85,-49.95,-3.15,31.72,9.932,
07/02/2025,12:23:10.27,-508.30,-34.67,876.46,1.21,0.07,-2.85,64.05,-48.75,-2.55,31.58,9.932,
07/02/2025,12:23:10.37,-522.95,-34.67,870.12,2.25,1.71,3.58,64.95,-50.10,-3.0,31.48,9.932,
07/02/2025,12:23:10.47,-526.86,-34.18,874.02,-0.40,-0.95,1.53,64.95,-48.90,-3.0,31.72,9.932,
07/02/2025,12:23:10.57,-518.07,-31.74,885.74,-2.46,0.53,-0.60,64.35,-49.95,-3.60,31.58,9.933,
07/02/2025,12:23:10.67,-507.81,-25.39,875.0,0.15,-2.51,-1.02,64.95,-50.10,-4.20,31.67,9.931,
07/02/2025,12:23:10.77,-522.95,-36.62,876.95,-1.09,2.0,0.63,65.85,-49.20,-3.60,31.58,9.932,
07/02/2025,12:23:10.88,-522.46,-39.06,875.49,0.83,-1.85,2.36,66.45,-48.90,-3.45,31.58,9.932,
07/02/2025,12:23:10.98,-518.55,-41.99,872.56,-0.53,-0.10,-1.01,65.10,-49.20,-2.55,31.67,9.932,
07/02/2025,12:23:11.08,-504.39,-28.32,878.91,-1.38,-1.70,1.62,65.55,-50.25,-2.70,31.24,9.932,
07/02/2025,12:23:11.18,-497.56,-32.23,893.55,-0.92,-0.31,-3.18,65.10,-50.70,-2.85,31.67,9.932,
07/02/2025,12:23:11.28,-509.77,-26.37,882.81,0.97,-0.54,-0.83,66.30,-47.55,-3.15,31.38,9.932,
07/02/2025,12:23:11.38,-515.63,-36.62,878.42,-1.91,-1.37,-0.67,65.85,-49.20,-5.10,31.58,9.932,
07/02/2025,12:23:11.48,-512.70,-28.81,879.88,0.78,-0.95,0.21,65.55,-49.95,-3.90,31.48,9.932,
07/02/2025,12:23:11.58,-499.02,-40.53,877.44,0.68,-0.41,2.23,65.85,-50.25,-2.55,31.67,9.932,
07/02/2025,12:23:11.68,-514.16,-43.95,884.77,2.24,-0.28,2.98,65.55,-48.75,-3.60,31.53,9.932,
07/02/2025,12:23:11.78,-500.98,-39.55,870.12,-0.05,2.76,-1.31,65.70,-50.40,-2.25,31.72,9.932,
07/02/2025,12:23:11.88,-512.70,-35.16,881.35,0.76,-0.54,-0.47,64.80,-48.75,-3.90,31.58,9.932,
07/02/2025,12:23:11.98,-533.20,-38.09,875.49,0.95,-0.26,1.23,64.35,-47.55,-2.85,31.72,9.931,
07/02/2025,12:23:12.08,-520.02,-37.60,874.02,1.92,-1.86,1.68,65.55,-48.0,-2.85,31.38,9.931,
07/02/2025,12:23:12.19,-521.48,-29.79,879.39,1.98,-0.50,-0.43,64.95,-50.40,-3.45,31.38,9.931,
07/02/2025,12:23:12.29,-519.53,-35.64,874.51,1.31,0.06,-1.11,66.30,-50.25,-2.55,31.53,9.932,
07/02/2025,12:23:12.39,-516.60,-36.62,877.44,-2.85,-1.05,-0.12,66.0,-50.10,-3.75,31.77,9.932,
07/02/2025,12:23:12.49,-513.18,-40.53,884.77,-0.99,0.92,-0.02,66.60,-49.50,-3.60,31.48,9.932,
07/02/2025,12:23:12.59,-510.74,-39.06,883.30,-0.18,-0.79,3.08,66.30,-48.75,-3.90,31.58,9.932,
07/02/2025,12:23:12.69,-512.21,-40.04,875.49,1.59,-0.82,1.59,66.30,-48.30,-2.85,31.72,9.932,
07/02/2025,12:23:12.79,-527.83,-32.23,873.05,-1.03,-1.56,4.37,64.65,-48.90,-4.20,31.53,9.932,
07/02/2025,12:23:12.89,-519.04,-43.95,883.30,-0.86,2.15,-1.46,65.10,-48.75,-2.55,31.53,9.932,
07/02/2025,12:23:12.99,-516.11,-41.02,877.93,0.63,-0.62,-1.46,65.55,-48.75,-3.90,31.38,9.932,
07/02/2025,12:23:13.09,-517.09,-28.32,878.91,0.11,-1.92,4.18,65.85,-49.95,-2.55,31.53,9.932,
07/02/2025,12:23:13.19,-526.86,-32.23,882.32,0.08,-0.89,1.05,65.55,-48.75,-3.90,31.24,9.932,
07/02/2025,12:23:13.29,-514.65,-49.32,890.14,0.69,-0.21,1.37,66.0,-48.60,-3.0,31.72,9.931,
07/02/2025,12:23:13.39,-512.70,-34.18,864.75,-1.77,0.98,-0.95,65.55,-48.75,-4.65,31.24,9.931,
07/02/2025,12:23:13.49,-519.04,-42.97,879.39,-1.24,1.47,-0.22,65.55,-49.50,-2.85,31.72,9.931,
07/02/2025,12:23:13.60,-517.58,-39.55,876.46,-0.46,-1.74,0.0,65.40,-50.10,-2.70,31.38,9.931,
07/02/2025,12:23:13.70,-514.16,-38.57,881.35,1.95,-2.25,1.63,64.95,-48.90,-3.45,31.48,9.932,
07/02/2025,12:23:13.80,-519.53,-44.43,880.86,0.64,0.22,2.03,64.65,-50.85,-3.0,31.58,9.932,
07/02/2025,12:23:13.90,-521.48,-36.13,870.61,0.08,-1.82,0.43,64.35,-48.0,-3.15,31.58,9.932,
07/02/2025,12:23:14.00,-518.55,-36.62,873.54,-0.09,0.69,0.02,65.85,-49.20,-4.65,31.53,9.932,
07/02/2025,12:23:14.10,-508.30,-35.16,884.28,-1.86,-1.95,1.66,64.80,-49.20,-3.60,31.53,9.932,
07/02/2025,12:23:14.20,-516.60,-46.88,871.09,0.82,-1.41,0.33,64.35,-50.25,-2.55,31.53,9.932,
07/02/2025,12:23:14.30,-501.95,-34.18,876.46,-0.27,-2.11,-0.44,64.95,-48.15,-3.75,31.72,9.932,
07/02/2025,12:23:14.40,-509.77,-35.16,876.95,1.31,-2.35,0.70,65.70,-48.15,-1.95,31.72,9.932,
07/02/2025,12:23:14.50,-518.55,-39.06,869.14,-3.02,-0.09,-0.08,65.70,-48.15,-4.20,31.58,9.931,
07/02/2025,12:23:14.60,-526.86,-44.43,887.70,-0.29,-0.77,-1.58,65.10,-48.30,-3.60,31.53,9.931,
07/02/2025,12:23:14.70,-510.25,-37.11,885.74,1.46,-0.85,4.49,65.40,-47.40,-2.25,31.53,9.931,
07/02/2025,12:23:14.80,-517.09,-24.41,874.51,0.17,0.23,-0.01,65.70,-48.60,-3.75,31.38,9.931,
07/02/2025,12:23:14.91,-515.63,-35.64,876.95,-0.26,1.08,-3.47,66.30,-48.30,-2.55,31.53,9.931,
07/02/2025,12:23:15.01,-517.58,-40.04,878.42,-0.93,2.72,-0.97,65.85,-49.20,-3.15,31.38,9.931,
07/02/2025,12:23:15.11,-514.65,-28.32,870.61,-1.67,1.37,-3.87,65.70,-48.90,-2.70,31.24,9.931,
07/02/2025,12:23:15.21,-517.09,-26.86,876.46,0.70,-1.77,1.92,66.60,-49.20,-3.15,31.53,9.932,
07/02/2025,12:23:15.31,-513.18,-33.20,869.63,0.21,0.37,0.99,65.10,-47.55,-4.65,31.38,9.932,
07/02/2025,12:23:15.41,-515.63,-35.16,881.84,-0.72,0.47,0.54,65.40,-48.90,-4.20,31.53,9.932,
07/02/2025,12:23:15.51,-518.07,-30.27,875.98,-1.59,-1.22,0.94,65.10,-48.75,-3.90,31.48,9.932,
07/02/2025,12:23:15.61,-525.39,-51.27,877.93,-0.54,2.0,-1.52,65.55,-48.75,-2.10,31.38,9.932,
07/02/2025,12:23:15.71,-521.48,-32.71,886.23,0.16,1.08,1.51,66.45,-49.65,-3.0,31.53,9.932,
07/02/2025,12:23:15.81,-523.44,-31.25,880.86,0.41,-1.40,-0.60,67.20,-49.35,-3.0,31.58,9.932,
07/02/2025,12:23:15.91,-511.72,-39.55,880.37,-0.85,1.22,-2.55,66.0,-47.85,-3.75,31.24,9.931,
07/02/2025,12:23:16.01,-521.00,-32.23,860.84,1.10,-0.07,-0.81,65.85,-52.20,-3.15,31.48,9.931,
07/02/2025,12:23:16.11,-509.28,-30.27,873.05,2.31,-0.16,-1.21,65.70,-48.90,-3.45,31.38,9.931,
07/02/2025,12:23:16.22,-528.81,-34.18,873.05,0.92,0.44,-0.34,67.05,-49.95,-1.80,31.38,9.931,
07/02/2025,12:23:16.32,-521.00,-31.25,878.91,-0.66,1.56,0.07,65.10,-48.30,-1.05,31.38,9.931,
07/02/2025,12:23:16.42,-521.48,-39.06,877.93,-2.35,3.17,-1.05,65.85,-49.50,-3.60,31.72,9.931,
07/02/2025,12:23:16.52,-517.58,-29.79,882.81,1.23,-0.86,2.55,65.55,-50.70,-3.15,31.24,9.931,
07/02/2025,12:23:16.62,-517.58,-44.43,879.39,0.06,-1.91,0.79,66.0,-48.90,-3.0,31.38,9.932,
07/02/2025,12:23:16.72,-512.70,-37.11,871.09,1.37,-0.43,0.36,65.10,-49.50,-3.60,31.53,9.932,
07/02/2025,12:23:16.82,-511.23,-24.90,871.58,0.21,-1.21,0.85,65.40,-49.35,-4.80,31.38,9.932,
07/02/2025,12:23:16.92,-508.30,-34.18,878.42,-2.05,-0.48,-0.78,66.0,-48.60,-5.25,31.67,9.932,
07/02/2025,12:23:17.02,-519.53,-30.76,880.86,0.92,-0.44,2.80,65.40,-50.10,-3.75,31.53,9.932,
07/02/2025,12:23:17.12,-521.97,-47.85,882.32,0.51,0.23,-0.64,64.95,-50.10,-3.45,31.53,9.932,
07/02/2025,12:23:17.22,-503.42,-46.88,883.30,1.18,-1.65,1.40,67.05,-49.20,-4.65,31.48,9.931,
07/02/2025,12:23:17.32,-517.09,-55.18,884.28,0.27,0.19,-1.17,66.0,-50.10,-4.50,31.38,9.931,
07/02/2025,12:23:17.42,-515.63,-28.32,879.88,0.03,1.52,-0.09,66.0,-48.15,-3.75,31.53,9.931,
07/02/2025,12:23:17.53,-523.44,-24.90,873.54,0.85,-1.99,-1.28,65.70,-49.35,-3.45,31.72,9.931,
07/02/2025,12:23:17.63,-510.74,-43.46,874.51,0.43,-0.48,-0.47,67.05,-49.50,-2.10,31.53,9.931,
07/02/2025,12:23:17.73,-512.21,-33.69,879.88,-2.08,1.82,-2.24,66.45,-49.65,-3.75,31.38,9.931,
07/02/2025,12:23:17.83,-509.28,-38.09,877.44,-0.16,-0.07,-0.40,65.55,-49.20,-3.15,31.53,9.931,
07/02/2025,12:23:17.93,-512.21,-35.16,874.02,0.22,0.84,1.40,66.0,-49.35,-3.45,31.38,9.931,
07/02/2025,12:23:18.03,-499.51,-39.55,870.61,-0.54,-1.18,2.63,66.30,-48.75,-2.10,31.48,9.931,
07/02/2025,12:23:18.13,-513.18,-33.69,873.54,1.99,-0.31,1.56,66.45,-49.65,-3.45,31.38,9.932,
07/02/2025,12:23:18.23,-523.44,-41.02,865.72,-2.93,-0.11,0.96,65.55,-49.20,-2.85,31.53,9.932,
07/02/2025,12:23:18.33,-513.18,-42.97,869.14,-0.21,-0.82,-0.20,64.80,-49.20,-3.90,31.48,9.932,
07/02/2025,12:23:18.43,-518.07,-27.34,871.09,0.20,-2.34,0.73,66.0,-50.10,-4.20,31.72,9.932,
07/02/2025,12:23:18.53,-518.07,-30.27,882.81,1.50,-1.53,0.25,66.0,-49.65,-4.80,31.48,9.931,
07/02/2025,12:23:18.63,-500.49,-29.30,884.77,1.23,1.73,-1.37,65.70,-50.40,-1.50,31.53,9.931,
07/02/2025,12:23:18.73,-520.51,-40.53,881.84,-0.61,3.42,-3.20,64.05,-48.75,-2.55,31.48,9.931,
07/02/2025,12:23:18.84,-507.81,-29.79,870.61,1.92,-1.61,0.98,64.95,-48.90,-3.45,31.48,9.931,
07/02/2025,12:23:18.94,-518.55,-26.86,886.23,1.80,-2.06,4.02,65.55,-48.75,-4.65,31.67,9.931,
07/02/2025,12:23:19.04,-514.16,-32.71,888.67,-0.56,0.08,-1.38,65.40,-48.90,-1.95,31.38,9.931,
07/02/2025,12:23:19.14,-507.32,-33.69,878.42,0.22,1.43,-1.02,64.65,-49.65,-2.70,31.72,9.931,
07/02/2025,12:23:19.24,-519.04,-32.23,869.14,-1.09,0.28,1.11,65.55,-49.20,-2.85,31.34,9.931,
07/02/2025,12:23:19.34,-497.07,-35.16,880.37,2.31,-2.37,0.25,64.95,-50.40,-3.75,31.53,9.931,
07/02/2025,12:23:19.44,-512.21,-44.92,877.93,-1.55,-0.40,0.11,65.40,-50.10,-2.70,31.34,9.931,
07/02/2025,12:23:19.54,-504.39,-37.60,872.07,-1.39,0.47,-1.31,67.05,-49.20,-3.15,31.72,9.932,
07/02/2025,12:23:19.64,-510.74,-35.16,877.93,-0.87,-0.72,-0.71,65.85,-49.50,-3.90,31.24,9.932,
07/02/2025,12:23:19.74,-505.86,-22.95,875.98,-1.16,-0.38,-2.39,65.70,-48.60,-4.20,31.53,9.932,
07/02/2025,12:23:19.84,-526.86,-37.60,879.88,1.96,0.83,0.14,65.40,-49.35,-3.45,31.24,9.931,
07/02/2025,12:23:19.94,-516.60,-32.23,889.65,2.05,-1.89,0.36,65.70,-48.60,-3.75,31.67,9.931,
07/02/2025,12:23:20.04,-519.04,-29.30,879.39,-0.85,0.91,0.21,64.95,-48.60,-3.45,31.38,9.931,
07/02/2025,12:23:20.15,-523.44,-44.43,866.70,-0.82,0.78,-0.08,64.80,-48.30,-3.15,31.24,9.931,
07/02/2025,12:23:20.25,-503.91,-35.64,877.44,0.16,-3.17,3.45,65.55,-48.30,-3.60,31.48,9.931,
07/02/2025,12:23:20.35,-508.79,-41.99,870.12,0.51,-0.72,1.90,64.95,-50.10,-5.25,31.58,9.931,
07/02/2025,12:23:20.45,-503.42,-35.16,881.35,0.24,0.26,1.22,67.05,-48.30,-2.85,31.48,9.931,
07/02/2025,12:23:20.55,-517.09,-47.85,880.37,-1.76,1.80,-2.0,64.95,-49.35,-1.50,31.38,9.931,
07/02/2025,12:23:20.65,-518.55,-36.62,882.81,-2.21,-2.0,-1.18,66.0,-48.60,-3.45,31.53,9.931,
07/02/2025,12:23:20.75,-520.51,-38.57,880.86,0.20,-0.40,1.61,65.85,-50.25,-2.85,31.48,9.931,
07/02/2025,12:23:20.85,-501.46,-31.25,885.25,0.56,-1.25,0.17,65.40,-50.10,-2.25,31.19,9.931,
07/02/2025,12:23:20.95,-519.04,-31.25,880.37,2.13,-1.70,1.06,66.30,-49.95,-3.60,31.53,9.931,
07/02/2025,12:23:21.05,-509.28,-44.43,873.54,-0.06,-1.23,-0.83,65.40,-48.60,-3.0,31.38,9.932,
07/02/2025,12:23:21.15,-509.77,-44.92,879.39,-0.73,0.25,-3.32,66.75,-50.10,-2.70,31.38,9.932,
07/02/2025,12:23:21.25,-508.79,-30.27,881.84,0.86,-3.12,-1.39,65.10,-49.95,-3.15,31.48,9.931,
07/02/2025,12:23:21.35,-520.02,-38.09,870.12,2.02,-2.74,-1.95,67.05,-49.50,-3.60,31.34,9.931,
07/02/2025,12:23:21.46,-514.16,-23.93,874.02,-0.92,1.66,-1.70,65.40,-49.35,-4.20,31.38,9.931,
07/02/2025,12:23:21.56,-523.44,-24.41,877.44,-0.59,-0.82,-0.21,64.95,-48.60,-2.70,31.34,9.931,
07/02/2025,12:23:21.66,-500.98,-38.57,870.61,1.29,-1.47,1.25,65.10,-49.20,-2.55,31.19,9.931,
07/02/2025,12:23:21.76,-520.51,-34.18,877.93,-1.41,-1.63,2.02,64.95,-49.35,-3.0,31.38,9.931,
07/02/2025,12:23:21.86,-509.28,-43.95,884.77,-1.19,1.69,-1.56,64.95,-50.40,-3.45,31.38,9.931,
07/02/2025,12:23:21.96,-517.09,-50.78,863.28,0.32,0.02,2.74,65.85,-49.50,-3.15,31.53,9.931,
07/02/2025,12:23:22.06,-513.18,-45.41,873.54,1.02,-1.82,0.04,66.30,-48.30,-3.15,31.48,9.931,
07/02/2025,12:23:22.16,-522.46,-35.16,878.42,1.32,-0.27,2.05,66.45,-50.10,-3.45,31.53,9.931,
07/02/2025,12:23:22.26,-517.09,-31.25,870.12,0.75,-0.44,2.08,66.30,-49.50,-3.60,31.38,9.931,
07/02/2025,12:23:22.36,-510.74,-30.27,884.77,-0.66,0.07,-1.90,66.30,-49.20,-3.15,31.53,9.931,
07/02/2025,12:23:22.46,-505.86,-33.69,875.98,-0.20,-0.12,-3.21,65.40,-49.35,-1.95,31.53,9.932,
07/02/2025,12:23:22.56,-520.51,-43.46,869.14,1.35,-1.20,0.73,65.85,-50.70,-3.90,31.67,9.931,
07/02/2025,12:23:22.66,-506.84,-32.23,876.46,1.33,0.48,1.64,65.10,-49.20,-2.55,31.67,9.931,
07/02/2025,12:23:22.76,-509.77,-47.85,879.88,1.46,0.27,0.08,66.45,-48.90,-3.75,31.14,9.931,
07/02/2025,12:23:22.87,-517.58,-36.13,883.79,-0.55,2.70,-2.33,66.45,-48.15,-2.70,31.48,9.931,
07/02/2025,12:23:22.97,-513.18,-22.95,880.37,-2.51,0.95,0.69,65.85,-49.50,-2.85,31.05,9.931,
07/02/2025,12:23:23.07,-503.91,-33.20,877.93,1.45,1.07,0.27,64.95,-50.10,-3.0,31.24,9.931,
07/02/2025,12:23:23.17,-512.70,-37.11,885.74,0.85,-1.95,2.32,64.35,-49.95,-2.10,31.14,9.931,
07/02/2025,12:23:23.27,-519.53,-27.34,880.37,0.74,0.72,0.41,66.60,-49.50,-5.10,31.38,9.931,
07/02/2025,12:23:23.37,-514.65,-40.53,883.30,0.42,-0.75,-0.04,65.55,-48.75,-3.60,31.38,9.931,
07/02/2025,12:23:23.47,-516.60,-25.39,875.0,-2.12,0.98,-1.11,65.10,-49.20,-2.55,31.53,9.931,
07/02/2025,12:23:23.57,-521.00,-36.13,883.79,2.38,-0.04,1.27,65.85,-50.25,-3.15,31.24,9.931,
07/02/2025,12:23:23.67,-517.58,-21.97,888.67,-0.70,-0.60,0.0,64.65,-48.90,-2.70,31.58,9.931,
07/02/2025,12:23:23.77,-519.53,-48.34,876.46,-0.99,1.0,-2.72,67.20,-48.90,-4.80,31.24,9.931,
07/02/2025,12:23:23.87,-516.11,-33.69,878.42,0.12,3.17,2.05,65.10,-48.75,-2.10,31.24,9.930,
07/02/2025,12:23:23.97,-519.04,-35.16,889.16,-0.73,-0.03,-0.23,65.55,-49.20,-2.85,31.24,9.930,
07/02/2025,12:23:24.07,-513.67,-24.41,882.81,2.56,-0.84,0.76,66.60,-49.20,-2.85,31.67,9.931,
07/02/2025,12:23:24.18,-511.23,-32.23,881.84,-0.48,-3.89,1.52,64.80,-49.95,-3.15,31.58,9.931,
07/02/2025,12:23:24.28,-515.63,-40.53,890.63,-0.91,-1.68,0.25,65.40,-48.90,-4.20,31.24,9.931,
07/02/2025,12:23:24.38,-518.55,-30.27,870.12,0.28,-0.02,0.43,64.20,-47.40,-1.95,31.53,9.931,
07/02/2025,12:23:24.48,-524.41,-41.02,879.39,1.98,-0.66,0.53,64.65,-48.90,-3.0,31.38,9.931,
07/02/2025,12:23:24.58,-514.65,-42.48,870.61,1.82,-1.33,1.94,64.80,-48.75,-2.85,31.48,9.931,
07/02/2025,12:23:24.68,-523.44,-37.11,875.0,-0.34,-0.30,-2.79,65.70,-49.65,-3.45,31.53,9.931,
07/02/2025,12:23:24.78,-509.77,-42.48,876.95,-0.38,3.58,1.88,65.40,-49.65,-4.20,31.38,9.931,
07/02/2025,12:23:24.88,-511.72,-12.70,870.61,-0.24,0.34,1.74,64.95,-48.90,-3.45,31.38,9.931,
07/02/2025,12:23:24.98,-502.44,-36.62,874.51,-0.05,-0.67,0.52,67.05,-49.50,-3.60,31.67,9.931,
07/02/2025,12:23:25.08,-517.09,-44.92,877.93,-2.06,2.25,-2.94,65.85,-49.95,-4.35,31.24,9.931,
07/02/2025,12:23:25.18,-516.11,-31.74,873.54,0.60,1.28,-1.18,64.95,-49.35,-4.50,31.53,9.930,
07/02/2025,12:23:25.28,-512.70,-43.95,876.95,-0.33,1.37,0.38,64.65,-49.35,-4.20,31.48,9.930,
07/02/2025,12:23:25.38,-507.81,-31.74,880.37,1.63,-0.98,-0.02,66.45,-50.10,-3.0,31.34,9.930,
07/02/2025,12:23:25.49,-509.77,-40.04,871.09,0.50,0.34,2.92,65.85,-49.50,-1.80,31.14,9.931,
07/02/2025,12:23:25.59,-514.16,-30.27,877.44,-1.76,-1.08,-3.49,66.30,-48.30,-2.10,31.19,9.931,
07/02/2025,12:23:25.69,-515.63,-41.50,876.46,-2.73,0.42,-0.50,65.85,-49.50,-2.55,31.48,9.931,
07/02/2025,12:23:25.79,-515.14,-54.20,880.86,2.44,-3.63,1.27,66.45,-49.65,-2.70,31.34,9.931,
07/02/2025,12:23:25.89,-511.23,-30.27,879.39,2.50,-0.68,1.22,64.65,-50.10,-3.0,31.19,9.931,
07/02/2025,12:23:25.99,-515.63,-22.46,875.0,-0.02,-2.54,1.38,66.0,-48.90,-3.0,31.24,9.931,
07/02/2025,12:23:26.09,-521.48,-39.06,878.42,-0.17,-0.37,-1.82,66.30,-49.20,-3.60,31.48,9.931,
07/02/2025,12:23:26.19,-513.18,-54.20,879.39,-0.64,-0.67,-0.92,66.30,-49.95,-3.90,31.48,9.931,
07/02/2025,12:23:26.29,-516.60,-43.46,871.09,2.03,0.37,1.40,66.0,-48.15,-3.45,31.38,9.931,
07/02/2025,12:23:26.39,-499.02,-31.74,874.51,1.27,-2.27,2.40,66.45,-49.65,-3.0,31.38,9.931,
07/02/2025,12:23:26.49,-516.11,-35.64,880.86,-1.02,1.77,-1.64,65.85,-48.75,-4.65,31.34,9.930,
07/02/2025,12:23:26.59,-505.37,-44.43,885.25,2.34,0.85,-2.97,65.55,-49.20,-2.10,31.38,9.930,
07/02/2025,12:23:26.69,-507.32,-35.64,873.54,-1.02,-1.59,2.28,65.40,-48.90,-4.80,31.38,9.930,
07/02/2025,12:23:26.80,-519.53,-42.97,893.55,0.28,1.98,-0.02,65.70,-50.40,-2.70,31.38,9.930,
07/02/2025,12:23:26.90,-522.46,-31.25,881.35,0.31,-1.03,-0.02,65.10,-48.0,-2.85,31.19,9.931,
07/02/2025,12:23:27.00,-520.51,-42.48,875.49,0.38,1.27,-1.63,65.70,-48.15,-2.70,31.38,9.931,
07/02/2025,12:23:27.10,-522.46,-29.79,880.37,-2.18,-1.47,-0.84,66.45,-48.90,-2.70,31.05,9.931,
07/02/2025,12:23:27.20,-510.74,-47.36,878.91,2.23,-0.34,1.46,65.10,-48.30,-2.85,31.24,9.931,
07/02/2025,12:23:27.30,-519.04,-53.22,880.37,-0.62,-0.63,0.14,65.70,-50.10,-4.20,31.19,9.931,
07/02/2025,12:23:27.40,-515.14,-21.97,874.51,0.91,1.34,-0.89,66.0,-48.90,-3.0,31.67,9.931,
07/02/2025,12:23:27.50,-518.07,-39.06,876.95,0.76,-0.21,-2.36,66.45,-49.65,-2.25,31.14,9.931,
07/02/2025,12:23:27.60,-510.25,-44.43,883.30,0.79,0.22,2.53,65.10,-47.55,-2.85,31.38,9.931,
07/02/2025,12:23:27.70,-517.09,-32.23,877.93,-1.09,-0.73,0.89,65.70,-50.10,-4.80,31.34,9.931,
07/02/2025,12:23:27.80,-522.95,-36.62,873.54,0.86,0.59,2.66,67.50,-50.85,-3.75,31.34,9.930,
07/02/2025,12:23:27.90,-508.30,-26.86,887.21,-0.53,2.0,-1.83,65.70,-49.35,-3.45,31.14,9.930,
07/02/2025,12:23:28.00,-521.00,-36.62,875.0,-0.42,1.08,-2.18,65.85,-47.55,-3.90,31.53,9.930,
07/02/2025,12:23:28.11,-522.46,-27.83,878.91,-0.30,-1.13,0.21,66.0,-49.65,-3.75,31.14,9.930,
07/02/2025,12:23:28.21,-523.93,-32.23,873.05,1.65,-0.18,1.73,65.70,-48.90,-3.0,31.53,9.930,
07/02/2025,12:23:28.31,-507.32,-48.83,874.02,-0.22,1.04,0.33,65.70,-48.90,-2.70,31.05,9.931,
07/02/2025,12:23:28.41,-502.93,-39.06,886.23,-0.86,0.64,-1.53,64.80,-49.50,-3.15,31.48,9.931,
07/02/2025,12:23:28.51,-512.21,-39.55,886.23,-0.53,-1.75,-0.15,64.65,-48.60,-3.0,31.38,9.931,
07/02/2025,12:23:28.61,-509.28,-39.06,885.25,0.79,0.76,2.96,65.40,-48.60,-3.0,31.38,9.931,
07/02/2025,12:23:28.71,-516.11,-46.39,880.37,-1.52,0.38,0.60,64.20,-48.15,-3.45,31.14,9.931,
07/02/2025,12:23:28.81,-513.67,-29.30,881.35,-0.33,-0.92,-2.50,63.90,-48.90,-3.45,31.38,9.931,
07/02/2025,12:23:28.91,-523.93,-31.25,873.05,-1.62,0.14,-0.40,64.65,-48.60,-3.75,31.38,9.931,
07/02/2025,12:23:29.01,-511.72,-40.04,885.74,0.24,-0.76,-0.55,65.85,-48.75,-3.60,31.48,9.931,
07/02/2025,12:23:29.11,-517.58,-43.95,879.88,0.63,-1.57,1.34,65.40,-49.65,-3.45,31.34,9.931,
07/02/2025,12:23:29.21,-510.25,-31.74,880.86,-1.34,1.59,0.47,64.65,-49.35,-4.20,31.53,9.930,
07/02/2025,12:23:29.31,-511.72,-30.76,870.61,-1.74,0.91,-0.66,67.05,-50.25,-2.55,31.38,9.930,
07/02/2025,12:23:29.41,-508.30,-30.76,870.12,1.40,-1.72,-0.20,65.55,-48.75,-3.60,31.58,9.930,
07/02/2025,12:23:29.52,-511.23,-34.18,881.35,0.70,-1.05,0.64,66.30,-49.20,-3.90,31.38,9.930,
07/02/2025,12:23:29.62,-511.72,-43.46,875.0,-2.61,-0.63,-1.40,65.40,-48.60,-3.0,31.24,9.930,
07/02/2025,12:23:29.72,-517.09,-40.04,863.28,-1.66,1.18,-0.62,64.95,-48.15,-3.75,31.24,9.930,
07/02/2025,12:23:29.82,-517.58,-18.07,884.28,0.18,-1.02,-0.26,66.30,-50.25,-4.35,31.24,9.931,
07/02/2025,12:23:29.92,-528.32,-28.32,870.61,1.58,-1.76,-0.41,66.0,-48.60,-3.75,31.19,9.931,
07/02/2025,12:23:30.02,-499.02,-41.50,881.35,-1.51,1.02,-3.50,65.55,-50.70,-3.60,31.38,9.931,
07/02/2025,12:23:30.12,-518.07,-39.55,884.28,-0.24,-0.08,-0.82,65.40,-48.90,-3.0,31.24,9.931,
07/02/2025,12:23:30.22,-507.32,-32.23,882.32,1.77,-2.63,0.67,63.90,-50.40,-3.45,31.19,9.931,
07/02/2025,12:23:30.32,-515.14,-34.18,881.35,0.37,-2.60,-0.02,66.0,-46.95,-3.0,31.34,9.931,
07/02/2025,12:23:30.42,-515.63,-33.20,873.54,0.85,-0.78,-1.73,65.10,-47.55,-3.60,31.38,9.931,
07/02/2025,12:23:30.52,-518.07,-43.95,883.30,-0.09,-1.68,-1.03,65.40,-47.85,-3.0,31.58,9.930,
07/02/2025,12:23:30.62,-504.39,-41.99,871.58,0.63,-1.79,-1.10,66.0,-50.10,-3.75,31.24,9.930,
07/02/2025,12:23:30.72,-508.30,-24.90,880.37,-1.22,-0.21,1.74,65.85,-50.25,-3.60,31.53,9.930,
07/02/2025,12:23:30.83,-504.88,-40.53,882.81,0.50,-1.63,1.57,65.10,-48.75,-2.85,31.24,9.930,
07/02/2025,12:23:30.93,-507.81,-31.25,889.16,-0.68,1.27,0.06,64.65,-48.60,-2.70,31.24,9.930,
07/02/2025,12:23:31.03,-507.32,-32.71,883.79,-2.06,0.94,-3.83,66.30,-48.30,-2.55,31.38,9.930,
07/02/2025,12:23:31.13,-512.70,-31.25,867.19,-0.07,-1.0,1.85,65.40,-48.15,-4.80,31.24,9.930,
07/02/2025,12:23:31.23,-524.41,-39.06,880.37,-0.58,-0.79,0.98,65.85,-47.55,-2.85,31.24,9.931,
07/02/2025,12:23:31.33,-499.02,-36.13,864.75,-0.39,1.74,-0.78,66.30,-48.0,-4.35,31.34,9.931,
07/02/2025,12:23:31.43,-513.67,-38.57,878.91,-0.06,-0.41,-0.20,65.55,-49.20,-2.55,31.38,9.931,
07/02/2025,12:23:31.53,-511.72,-33.20,878.91,-0.71,-1.76,0.85,65.85,-49.20,-3.90,31.38,9.931,
07/02/2025,12:23:31.63,-516.60,-33.69,885.25,1.15,-2.11,2.08,67.05,-48.75,-3.60,31.34,9.931,
07/02/2025,12:23:31.73,-510.74,-44.43,874.02,0.25,-1.49,1.22,65.55,-49.20,-2.85,31.34,9.931,
07/02/2025,12:23:31.83,-511.72,-46.39,882.32,0.08,-0.73,-0.72,66.60,-48.0,-3.60,31.24,9.930,
07/02/2025,12:23:31.93,-513.67,-37.60,882.32,1.33,0.85,-2.27,66.0,-49.65,-4.20,31.38,9.930,
07/02/2025,12:23:32.03,-511.23,-51.76,889.16,-2.27,0.69,0.09,65.85,-49.50,-3.90,31.58,9.930,
07/02/2025,12:23:32.14,-515.63,-43.46,869.14,1.89,-1.29,2.73,66.30,-49.95,-2.55,31.38,9.930,
07/02/2025,12:23:32.24,-518.55,-33.69,871.58,-0.03,0.18,-3.27,65.85,-48.75,-4.35,31.38,9.930,
07/02/2025,12:23:32.34,-528.81,-44.43,879.39,0.82,0.26,1.15,66.75,-49.65,-3.45,31.19,9.930,
07/02/2025,12:23:32.44,-509.28,-40.53,886.23,1.73,-1.39,3.02,65.85,-50.25,-3.60,31.38,9.930,
07/02/2025,12:23:32.54,-519.53,-34.67,874.51,-0.44,-0.81,2.83,65.40,-49.35,-2.70,31.14,9.930,
07/02/2025,12:23:32.64,-516.60,-41.50,881.84,-1.09,0.90,-0.26,65.10,-49.50,-3.60,31.38,9.931,
07/02/2025,12:23:32.74,-518.07,-45.41,884.28,0.70,-0.13,1.35,66.45,-49.35,-3.45,31.19,9.931,
07/02/2025,12:23:32.84,-509.28,-46.39,876.46,1.65,-0.49,0.08,65.10,-49.20,-3.15,31.34,9.931,
07/02/2025,12:23:32.94,-519.04,-34.18,890.63,-0.22,-1.77,1.44,64.35,-49.20,-4.35,31.53,9.931,
07/02/2025,12:23:33.04,-506.35,-33.20,886.23,-1.94,0.31,-1.92,64.65,-50.10,-3.75,31.14,9.931,
07/02/2025,12:23:33.14,-497.56,-37.11,880.37,-1.92,-1.24,-3.56,66.45,-48.60,-3.0,31.58,9.930,
07/02/2025,12:23:33.24,-520.02,-46.39,864.75,1.18,1.01,0.46,66.75,-48.15,-2.25,31.38,9.930,
07/02/2025,12:23:33.34,-511.72,-29.30,883.30,1.92,-1.03,0.67,66.75,-48.15,-2.25,31.38,9.930,
07/02/2025,12:23:33.44,-521.00,-29.79,876.95,-0.87,-0.51,-1.66,65.10,-49.95,-5.10,31.14,9.930,
07/02/2025,12:23:33.55,-505.37,-25.88,876.95,0.86,1.35,-0.73,65.55,-48.30,-2.85,31.38,9.930,
07/02/2025,12:23:33.65,-502.93,-32.23,877.44,0.78,-0.27,-0.83,66.45,-49.35,-3.45,31.34,9.930,
07/02/2025,12:23:33.75,-516.11,-44.92,869.63,2.82,-0.85,3.01,65.40,-49.65,-3.0,31.38,9.930,
07/02/2025,12:23:33.85,-522.95,-42.48,878.91,-0.45,-0.49,0.56,65.85,-50.25,-3.15,31.53,9.930,
07/02/2025,12:23:33.95,-508.30,-41.50,882.32,-0.59,1.79,-1.79,65.55,-48.30,-2.10,31.48,9.930,
07/02/2025,12:23:34.05,-522.46,-38.57,871.58,-0.27,-3.34,1.07,66.30,-49.95,-2.10,31.38,9.930,
07/02/2025,12:23:34.15,-506.84,-41.50,876.46,1.53,-0.22,2.01,65.40,-49.35,-3.45,31.24,9.931,
07/02/2025,12:23:34.25,-518.55,-38.57,886.23,1.0,-0.49,2.11,64.80,-49.50,-2.85,31.05,9.931,
07/02/2025,12:23:34.35,-509.77,-33.20,877.93,-1.46,-1.43,-0.42,64.95,-48.15,-1.95,31.24,9.931,
07/02/2025,12:23:34.45,-514.16,-36.62,879.39,0.20,-0.60,-1.94,64.95,-49.65,-3.0,31.38,9.931,
07/02/2025,12:23:34.55,-516.11,-29.30,867.68,0.85,-1.98,-0.42,65.40,-50.10,-3.75,31.38,9.930,
07/02/2025,12:23:34.65,-504.39,-39.55,876.46,-1.26,0.76,-0.75,65.85,-49.20,-3.15,31.19,9.930,
07/02/2025,12:23:34.76,-511.23,-44.43,875.0,0.89,0.42,-2.08,66.30,-50.70,-4.35,31.53,9.930,
07/02/2025,12:23:34.86,-516.60,-28.81,880.86,0.85,-1.82,0.21,65.40,-48.60,-4.50,31.14,9.930,
07/02/2025,12:23:34.96,-507.32,-43.46,876.46,-1.03,0.95,0.04,65.10,-50.25,-3.90,31.38,9.930,
07/02/2025,12:23:35.06,-535.16,-34.67,874.51,-0.42,0.91,-3.02,65.40,-48.60,-3.0,31.24,9.930,
07/02/2025,12:23:35.16,-520.02,-37.60,871.58,-0.39,-0.18,-0.05,64.35,-50.25,-3.60,31.53,9.930,
07/02/2025,12:23:35.26,-520.51,-37.60,870.12,0.78,-2.20,2.50,65.70,-48.90,-3.45,31.05,9.930,
07/02/2025,12:23:35.36,-518.07,-34.18,865.23,-0.27,-1.11,0.99,65.70,-49.65,-4.50,31.14,9.930,
07/02/2025,12:23:35.46,-511.72,-33.69,884.28,-1.63,1.30,-4.37,65.40,-48.60,-3.75,31.38,9.930,
07/02/2025,12:23:35.56,-516.60,-42.97,888.18,1.16,1.60,0.28,66.30,-48.75,-3.15,31.34,9.931,
07/02/2025,12:23:35.66,-528.32,-38.57,870.61,1.10,-0.54,3.24,65.55,-49.20,-4.35,31.24,9.931,
07/02/2025,12:23:35.76,-523.44,-25.39,875.98,-1.37,-0.27,-2.29,64.80,-49.50,-3.15,31.19,9.931,
07/02/2025,12:23:35.86,-519.53,-44.43,884.77,0.05,2.68,1.13,66.30,-49.95,-3.15,31.38,9.930,
07/02/2025,12:23:35.96,-518.07,-24.90,875.49,-0.53,-1.59,0.82,65.55,-49.50,-3.90,31.19,9.930,
07/02/2025,12:23:36.06,-509.28,-35.16,874.02,-0.41,-0.78,-0.15,64.80,-48.75,-4.65,31.38,9.930,
07/02/2025,12:23:36.17,-507.32,-36.62,874.51,0.40,-0.65,0.24,65.10,-49.50,-3.90,31.24,9.930,
07/02/2025,12:23:36.27,-510.25,-27.34,878.91,0.11,1.0,0.93,64.35,-49.20,-2.85,31.14,9.930,
07/02/2025,12:23:36.37,-518.07,-40.53,874.51,0.04,2.56,-2.56,65.70,-48.60,-4.20,31.14,9.930,
07/02/2025,12:23:36.47,-509.28,-35.16,882.32,0.22,-1.68,0.70,66.30,-50.70,-3.90,31.24,9.930,
07/02/2025,12:23:36.57,-515.14,-49.32,883.30,3.34,-1.59,0.54,65.70,-48.60,-4.80,31.38,9.930,
07/02/2025,12:23:36.67,-512.21,-23.93,870.12,0.01,-0.11,-0.66,66.75,-48.60,-3.0,31.24,9.930,
07/02/2025,12:23:36.77,-509.77,-36.62,875.0,-3.48,-0.69,-1.98,65.10,-49.95,-3.60,31.24,9.930,
07/02/2025,12:23:36.87,-521.97,-47.85,880.37,0.32,-1.12,3.54,66.30,-50.70,-3.60,31.14,9.930,
07/02/2025,12:23:36.97,-521.97,-38.57,874.02,-2.44,0.21,-1.67,65.85,-49.95,-4.35,31.24,9.931,
07/02/2025,12:23:37.07,-512.70,-42.48,881.35,-0.89,1.18,-0.76,65.40,-48.60,-3.75,31.24,9.931,
07/02/2025,12:23:37.17,-524.90,-37.60,874.51,0.88,-0.69,0.31,66.45,-50.10,-3.0,31.19,9.931,
07/02/2025,12:23:37.27,-498.54,-23.93,877.44,1.36,-1.83,-0.33,64.80,-48.30,-3.60,31.38,9.930,
07/02/2025,12:23:37.37,-500.98,-34.18,877.93,0.22,0.02,-2.0,65.40,-48.90,-2.70,31.24,9.930,
07/02/2025,12:23:37.48,-507.32,-39.55,879.39,0.63,1.95,-1.88,64.95,-48.15,-3.45,31.48,9.930,
07/02/2025,12:23:37.58,-517.58,-35.64,881.35,0.52,-0.84,-1.22,65.55,-48.30,-3.90,31.24,9.930,
07/02/2025,12:23:37.68,-510.74,-24.41,880.37,-0.91,-1.29,4.56,65.10,-50.25,-3.15,31.19,9.930,
07/02/2025,12:23:37.78,-519.04,-38.09,874.51,1.21,1.20,0.33,65.85,-49.95,-3.60,31.05,9.930,
07/02/2025,12:23:37.88,-508.79,-32.23,882.32,0.71,-0.64,1.03,66.30,-50.25,-3.90,31.24,9.930,
07/02/2025,12:23:37.98,-517.58,-37.60,882.32,0.25,-2.08,1.25,65.85,-49.50,-4.35,31.48,9.930,
07/02/2025,12:23:38.08,-512.21,-43.46,875.0,-0.76,-1.39,-1.61,65.40,-50.40,-3.45,31.14,9.930,
07/02/2025,12:23:38.18,-511.23,-41.02,883.30,-0.98,-0.18,-0.70,64.80,-49.50,-3.60,31.24,9.930,
07/02/2025,12:23:38.28,-518.07,-30.27,881.35,-0.69,-0.88,1.63,65.55,-49.20,-2.10,31.38,9.930,
07/02/2025,12:23:38.38,-517.09,-44.92,883.79,0.42,-0.70,1.25,64.95,-49.35,-3.45,31.24,9.931,
07/02/2025,12:23:38.48,-520.51,-32.23,875.98,-0.80,2.26,-1.79,64.65,-49.65,-2.70,31.38,9.931,
07/02/2025,12:23:38.58,-513.18,-42.48,878.42,-0.45,0.37,-0.37,65.85,-48.30,-3.60,31.24,9.930,
07/02/2025,12:23:38.68,-514.65,-25.39,875.0,1.08,-1.43,0.31,65.10,-49.50,-2.55,31.34,9.930,
07/02/2025,12:23:38.78,-508.79,-43.46,881.35,0.0,-0.92,3.50,64.95,-48.90,-4.20,31.24,9.930,
07/02/2025,12:23:38.89,-511.23,-31.74,860.35,-0.52,1.02,-0.42,65.85,-49.20,-3.15,31.14,9.930,
07/02/2025,12:23:38.99,-520.51,-33.20,870.12,-1.95,-1.0,-0.95,65.85,-48.75,-3.15,31.19,9.930,
07/02/2025,12:23:39.09,-505.86,-35.64,879.39,1.13,-1.35,-0.45,64.80,-49.95,-2.55,31.19,9.930,
07/02/2025,12:23:39.19,-518.07,-33.69,886.72,2.23,-3.71,1.44,65.70,-48.60,-3.0,31.24,9.930,
07/02/2025,12:23:39.29,-516.11,-39.06,870.12,-1.52,-1.27,-2.45,65.40,-48.90,-3.0,31.34,9.930,
07/02/2025,12:23:39.39,-505.86,-35.16,877.93,2.29,-0.68,2.27,64.95,-48.15,-4.20,30.81,9.930,
07/02/2025,12:23:39.49,-518.07,-52.25,874.02,-0.01,-0.15,0.46,66.0,-49.65,-4.50,31.14,9.930,
07/02/2025,12:23:39.59,-519.53,-33.20,867.68,0.22,0.21,-1.44,65.70,-48.90,-3.0,31.05,9.930,
07/02/2025,12:23:39.69,-519.53,-31.25,879.39,-0.44,0.79,1.78,65.85,-49.20,-2.55,31.38,9.930,
07/02/2025,12:23:39.79,-516.60,-34.67,869.14,3.03,-3.18,2.17,66.45,-49.65,-3.0,31.14,9.930,
07/02/2025,12:23:39.89,-513.18,-25.88,875.0,0.30,-1.16,1.74,65.55,-50.70,-3.90,31.34,9.930,
07/02/2025,12:23:39.99,-522.46,-40.04,877.44,-0.85,0.98,-2.60,63.90,-48.90,-3.45,31.05,9.930,
07/02/2025,12:23:40.09,-516.11,-36.13,880.37,0.12,0.15,-0.33,66.30,-49.50,-3.60,31.19,9.930,
07/02/2025,12:23:40.19,-515.63,-31.74,869.14,0.27,1.20,2.15,65.70,-48.90,-2.70,30.81,9.930,
07/02/2025,12:23:40.30,-516.11,-25.39,879.39,-0.98,-0.92,0.92,65.10,-48.30,-2.85,31.05,9.930,
07/02/2025,12:23:40.40,-517.09,-42.48,875.98,-3.18,0.42,0.27,66.30,-48.30,-3.15,30.95,9.930,
07/02/2025,12:23:40.50,-516.60,-38.09,875.49,-0.31,-0.86,2.22,66.60,-49.95,-3.60,31.19,9.930,
07/02/2025,12:23:40.60,-508.30,-32.23,877.44,-0.40,-1.59,2.11,65.10,-49.20,-2.10,31.14,9.930,
07/02/2025,12:23:40.70,-524.41,-36.62,879.88,1.28,0.60,-1.95,66.75,-49.65,-4.80,31.19,9.930,
07/02/2025,12:23:40.80,-506.35,-46.88,878.42,-1.51,-0.19,1.62,66.75,-49.35,-3.0,31.14,9.930,
07/02/2025,12:23:40.90,-520.51,-43.95,878.42,2.77,-1.53,1.81,64.95,-49.35,-3.75,31.38,9.930,
07/02/2025,12:23:41.00,-517.09,-39.55,877.93,-0.75,-0.69,0.61,66.60,-49.95,-2.85,30.86,9.930,
07/02/2025,12:23:41.10,-512.70,-32.23,870.12,-2.22,-0.36,0.68,66.0,-50.10,-3.0,31.38,9.930,
07/02/2025,12:23:41.20,-511.23,-40.53,895.02,0.05,0.89,-0.11,64.80,-49.20,-3.15,31.38,9.930,
07/02/2025,12:23:41.30,-523.44,-36.62,875.0,-2.45,-1.50,3.93,64.35,-48.75,-2.85,31.14,9.930,
07/02/2025,12:23:41.40,-509.28,-24.41,875.49,0.53,0.59,1.34,66.0,-47.85,-3.45,31.14,9.930,
07/02/2025,12:23:41.51,-511.72,-34.67,883.30,0.06,1.34,-0.27,65.85,-50.70,-3.15,31.24,9.930,
07/02/2025,12:23:41.61,-500.98,-30.76,875.0,-0.02,-2.60,1.24,64.95,-50.40,-2.70,31.05,9.930,
07/02/2025,12:23:41.71,-509.28,-30.27,875.49,-1.02,-0.37,-3.35,65.40,-50.10,-2.70,31.14,9.930,
07/02/2025,12:23:41.81,-518.55,-43.95,877.93,-0.10,-0.14,-1.97,64.80,-49.50,-3.60,31.19,9.930,
07/02/2025,12:23:41.91,-510.74,-36.13,878.91,1.11,-1.84,1.89,65.70,-50.10,-4.80,31.24,9.930,
07/02/2025,12:23:42.01,-515.63,-26.37,883.79,2.08,-0.67,1.49,66.0,-48.60,-3.0,31.24,9.930,
07/02/2025,12:23:42.11,-510.25,-38.57,879.88,-0.63,2.89,-1.34,67.20,-48.60,-3.0,31.14,9.930,
07/02/2025,12:23:42.21,-514.16,-35.16,866.70,-1.26,0.50,-1.13,64.65,-49.35,-3.0,31.34,9.930,
07/02/2025,12:23:42.31,-514.65,-39.06,874.51,1.32,-1.88,2.10,65.40,-48.90,-2.70,31.05,9.930,
07/02/2025,12:23:42.41,-511.23,-39.55,886.23,2.0,1.01,-2.31,65.85,-49.95,-1.35,31.38,9.930,
07/02/2025,12:23:42.51,-515.63,-34.18,875.49,-1.33,-0.21,-1.44,66.0,-49.35,-3.45,31.14,9.930,
07/02/2025,12:23:42.61,-511.23,-42.48,871.09,2.08,-2.02,4.08,64.35,-48.75,-3.90,31.34,9.930,
07/02/2025,12:23:42.71,-521.00,-41.50,888.67,-2.12,1.44,-0.45,64.95,-48.15,-3.75,30.95,9.930,
07/02/2025,12:23:42.81,-513.67,-48.83,877.44,-1.14,-1.53,2.03,64.95,-49.35,-4.20,31.24,9.930,
07/02/2025,12:23:42.92,-516.60,-29.79,866.21,1.24,-0.82,2.71,65.10,-50.70,-2.55,31.05,9.930,
07/02/2025,12:23:43.02,-505.86,-41.50,870.12,-1.08,-1.72,0.99,65.10,-48.75,-3.60,31.24,9.930,
07/02/2025,12:23:43.12,-511.72,-29.30,878.91,-0.51,1.95,-1.73,65.55,-48.0,-2.55,30.86,9.930,
07/02/2025,12:23:43.22,-512.21,-37.11,877.44,2.29,-1.56,2.03,65.85,-48.75,-3.15,31.38,9.930,
07/02/2025,12:23:43.32,-529.30,-51.27,881.35,0.38,-0.45,1.98,66.30,-48.75,-2.85,31.00,9.930,
07/02/2025,12:23:43.42,-514.16,-37.11,887.21,-2.11,0.34,1.63,64.95,-50.40,-3.45,31.05,9.930,
07/02/2025,12:23:43.52,-514.16,-35.16,882.32,-1.35,1.38,-1.58,66.30,-50.25,-4.65,30.95,9.930,
07/02/2025,12:23:43.62,-518.07,-32.71,871.58,0.37,-3.70,0.21,65.55,-50.25,-2.55,31.14,9.930,
07/02/2025,12:23:43.72,-522.95,-48.83,879.88,-0.13,-3.01,-1.20,66.30,-50.25,-3.60,30.86,9.930,
07/02/2025,12:23:43.82,-524.90,-46.39,877.93,2.91,3.13,-0.15,66.0,-48.60,-3.45,31.19,9.930,
07/02/2025,12:23:43.92,-511.23,-32.23,876.46,-1.77,-0.26,-3.37,65.85,-50.70,-3.60,31.14,9.930,
07/02/2025,12:23:44.02,-520.02,-29.30,874.51,-1.79,-1.35,1.56,65.10,-50.25,-2.85,31.24,9.930,
07/02/2025,12:23:44.12,-516.60,-34.67,883.79,1.16,1.15,1.59,66.60,-50.25,-3.60,31.14,9.930,
07/02/2025,12:23:44.22,-506.84,-36.62,882.32,-2.07,-0.21,1.97,64.95,-49.35,-1.95,31.19,9.930,
07/02/2025,12:23:44.33,-515.14,-40.04,871.09,1.24,-0.99,2.25,65.40,-50.10,-1.95,30.95,9.930,
07/02/2025,12:23:44.43,-515.14,-32.23,865.72,0.76,-1.11,-1.0,65.40,-51.30,-2.25,31.34,9.930,
07/02/2025,12:23:44.53,-510.25,-32.71,873.05,0.42,-0.37,2.79,64.35,-49.20,-3.90,31.05,9.930,
07/02/2025,12:23:44.63,-517.09,-21.97,878.42,2.08,-0.78,2.64,66.0,-48.15,-2.70,31.38,9.930,
07/02/2025,12:23:44.73,-515.63,-33.69,871.58,-0.85,-2.47,0.53,64.95,-49.35,-2.70,31.05,9.930,
07/02/2025,12:23:44.83,-504.88,-42.97,878.91,-0.38,-1.60,-0.96,65.70,-48.60,-3.75,31.05,9.930,
07/02/2025,12:23:44.93,-507.32,-47.36,872.56,-0.18,1.15,0.42,67.05,-49.95,-3.60,31.05,9.930,
07/02/2025,12:23:45.03,-510.74,-44.43,881.35,-0.79,-0.73,2.11,66.75,-48.90,-2.70,31.19,9.930,
07/02/2025,12:23:45.13,-514.16,-31.25,876.95,-0.34,-0.43,-0.79,64.20,-49.35,-4.50,31.14,9.930,
07/02/2025,12:23:45.23,-522.95,-41.50,889.65,-1.97,-0.21,-2.40,67.05,-50.25,-4.35,31.05,9.930,
07/02/2025,12:23:45.33,-521.00,-29.79,877.44,0.44,-0.05,0.50,66.30,-48.75,-3.90,31.14,9.930,
07/02/2025,12:23:45.43,-517.09,-42.48,871.09,2.02,-0.20,0.87,64.80,-50.70,-2.85,31.38,9.930,
07/02/2025,12:23:45.53,-513.18,-37.11,887.21,-1.47,0.97,-1.88,66.30,-50.25,-2.85,31.05,9.930,
07/02/2025,12:23:45.64,-510.25,-30.27,873.54,-0.95,2.26,1.84,66.60,-49.95,-3.60,31.14,9.930,
07/02/2025,12:23:45.74,-512.70,-28.81,871.09,0.27,0.24,0.47,65.85,-49.95,-2.85,31.14,9.930,
07/02/2025,12:23:45.84,-513.18,-30.27,871.58,0.68,1.23,-3.06,66.60,-49.20,-3.15,31.00,9.930,
07/02/2025,12:23:45.94,-517.58,-30.27,879.39,0.57,1.95,-0.11,65.55,-49.50,-3.60,31.14,9.930,
07/02/2025,12:23:46.04,-518.07,-48.83,878.91,0.17,-1.81,3.60,66.0,-47.85,-2.25,30.95,9.930,
07/02/2025,12:23:46.14,-509.77,-46.88,881.35,-1.47,2.01,-2.44,64.80,-48.30,-3.60,31.19,9.930,
07/02/2025,12:23:46.24,-501.95,-32.23,878.42,0.54,0.94,-0.60,65.10,-49.20,-2.85,31.05,9.930,
07/02/2025,12:23:46.34,-512.70,-37.60,884.28,1.09,-0.07,1.39,65.55,-48.30,-3.60,31.19,9.930,
07/02/2025,12:23:46.44,-518.07,-31.25,877.93,1.60,-0.22,3.51,64.80,-48.0,-1.80,30.81,9.930,
07/02/2025,12:23:46.54,-515.14,-32.23,876.46,-1.93,-0.01,-1.20,66.30,-48.75,-2.85,31.14,9.930,
07/02/2025,12:23:46.64,-514.16,-29.30,867.68,1.24,-2.68,1.53,66.75,-48.90,-3.0,31.05,9.929,
07/02/2025,12:23:46.74,-508.79,-37.11,870.61,1.15,-1.62,4.45,65.55,-49.95,-3.15,31.14,9.929,
07/02/2025,12:23:46.84,-510.25,-40.04,882.81,-0.43,2.03,1.74,65.55,-48.75,-3.60,31.14,9.930,
07/02/2025,12:23:46.94,-509.77,-36.13,883.30,-2.63,0.40,-2.17,65.40,-50.40,-3.75,31.19,9.930,
07/02/2025,12:23:47.05,-508.30,-38.09,872.07,0.51,0.21,-1.05,65.40,-49.35,-4.50,30.95,9.930,
07/02/2025,12:23:47.15,-507.32,-38.57,888.18,0.22,3.66,-0.62,65.70,-48.90,-3.0,31.19,9.930,
07/02/2025,12:23:47.25,-520.51,-24.90,879.88,-1.89,1.02,1.24,65.10,-49.50,-3.60,31.05,9.930,
07/02/2025,12:23:47.35,-517.09,-41.99,883.79,-0.16,-1.60,2.37,64.65,-48.60,-2.25,31.24,9.930,
07/02/2025,12:23:47.45,-504.39,-37.11,879.39,0.95,-0.35,1.44,65.70,-49.65,-3.45,31.19,9.930,
07/02/2025,12:23:47.55,-516.11,-31.74,888.67,-1.02,-0.37,-1.34,65.70,-49.65,-3.75,31.24,9.930,
07/02/2025,12:23:47.65,-508.79,-36.62,877.93,0.02,-1.73,-1.02,66.0,-48.15,-3.0,31.24,9.930,
07/02/2025,12:23:47.75,-508.30,-36.62,883.30,1.71,-1.67,3.56,66.30,-49.95,-2.10,31.05,9.930,
07/02/2025,12:23:47.85,-519.53,-40.04,880.86,-1.84,0.47,0.15,67.05,-48.75,-2.55,31.14,9.930,
07/02/2025,12:23:47.95,-512.70,-41.50,866.21,1.85,-1.34,2.27,65.55,-50.25,-3.15,30.71,9.930,
07/02/2025,12:23:48.05,-503.91,-41.02,884.77,1.08,-0.34,2.05,65.85,-49.50,-3.60,31.14,9.929,
07/02/2025,12:23:48.15,-512.21,-33.20,875.49,-1.69,-0.10,-0.98,66.75,-49.35,-3.45,31.14,9.929,
07/02/2025,12:23:48.25,-519.04,-38.57,875.98,-0.27,0.03,-2.97,67.20,-49.65,-3.75,31.19,9.930,
07/02/2025,12:23:48.36,-514.16,-27.34,876.46,1.02,-1.13,-0.27,66.0,-49.65,-3.75,30.81,9.930,
07/02/2025,12:23:48.46,-522.95,-41.02,882.81,1.46,-2.27,-2.15,66.45,-51.30,-2.70,31.05,9.930,
07/02/2025,12:23:48.56,-506.35,-41.99,871.09,-1.37,-0.17,-2.93,66.75,-50.40,-4.50,30.67,9.930,
07/02/2025,12:23:48.66,-505.86,-25.88,884.77,1.21,-3.24,2.03,66.30,-49.20,-3.15,31.14,9.930,
07/02/2025,12:23:48.76,-507.32,-46.39,884.77,2.37,-0.27,1.34,65.55,-49.95,-2.55,31.05,9.930,
07/02/2025,12:23:48.86,-509.77,-39.55,875.98,-1.52,0.60,-2.50,66.30,-48.30,-4.65,31.24,9.930,
07/02/2025,12:23:48.96,-513.18,-43.95,877.93,-0.31,0.79,0.41,66.60,-51.45,-4.35,30.86,9.930,
07/02/2025,12:23:49.06,-515.63,-28.32,891.60,1.85,-1.50,1.69,65.55,-49.20,-2.85,31.24,9.930,
07/02/2025,12:23:49.16,-517.09,-36.13,882.81,-1.51,0.16,-0.40,66.60,-49.50,-2.55,31.24,9.930,
07/02/2025,12:23:49.26,-502.93,-34.18,882.32,-1.94,-2.17,-0.17,66.60,-49.50,-2.10,31.14,9.930,
07/02/2025,12:23:49.36,-510.25,-13.18,880.37,-0.93,0.15,2.02,64.35,-49.95,-3.15,31.05,9.930,
07/02/2025,12:23:49.46,-505.37,-37.11,874.51,1.27,-1.69,3.18,65.85,-48.75,-2.10,31.19,9.929,
07/02/2025,12:23:49.56,-524.90,-29.79,867.68,-0.86,0.60,-2.92,64.95,-48.60,-2.25,31.14,9.929,
07/02/2025,12:23:49.66,-505.86,-41.50,878.42,0.31,-0.44,-2.24,65.70,-48.90,-3.45,31.05,9.930,
07/02/2025,12:23:49.77,-526.37,-40.53,880.86,-0.73,-1.06,1.77,64.95,-49.65,-3.0,31.05,9.930,
07/02/2025,12:23:49.87,-518.55,-26.37,877.93,0.21,1.21,-1.40,65.55,-49.95,-2.55,31.24,9.930,
07/02/2025,12:23:49.97,-514.16,-39.06,874.02,-1.85,-0.08,-0.93,65.10,-48.75,-3.90,31.14,9.930,
07/02/2025,12:23:50.07,-522.46,-49.32,885.74,2.11,0.25,0.28,64.95,-48.60,-2.70,31.14,9.930,
07/02/2025,12:23:50.17,-524.90,-40.53,873.05,-1.01,0.28,-0.88,65.70,-49.65,-3.0,31.05,9.930,
07/02/2025,12:23:50.27,-510.74,-31.74,878.42,-1.31,1.23,-1.27,65.40,-49.65,-2.70,31.00,9.930,
07/02/2025,12:23:50.37,-516.11,-44.92,888.18,2.86,-0.34,2.55,66.0,-49.35,-2.70,31.14,9.930,
07/02/2025,12:23:50.47,-517.09,-45.90,876.46,0.46,0.76,2.24,66.45,-49.65,-4.50,31.14,9.930,
07/02/2025,12:23:50.57,-517.09,-39.06,865.72,0.09,1.30,-0.27,66.0,-49.35,-2.70,31.14,9.930,
07/02/2025,12:23:50.67,-522.95,-26.86,872.07,-1.40,-0.04,-1.20,66.0,-50.10,-3.75,31.14,9.930,
07/02/2025,12:23:50.77,-505.86,-30.27,884.28,-0.09,-1.16,0.59,64.95,-48.90,-3.45,31.05,9.929,
07/02/2025,12:23:50.87,-514.16,-41.99,876.95,-2.0,1.60,-0.20,66.75,-48.60,-3.45,30.81,9.929,
07/02/2025,12:23:50.97,-499.51,-42.97,879.39,-1.63,4.08,-0.27,65.55,-48.75,-3.15,31.14,9.929,
07/02/2025,12:23:51.08,-514.16,-23.44,885.74,0.66,-2.64,2.85,65.85,-48.75,-1.80,30.86,9.930,
07/02/2025,12:23:51.18,-510.25,-38.57,875.98,1.20,0.60,-0.70,66.75,-49.65,-3.0,31.05,9.930,
07/02/2025,12:23:51.28,-519.04,-32.23,873.54,-1.34,1.28,-2.59,64.65,-49.65,-2.70,30.86,9.930,
07/02/2025,12:23:51.38,-519.53,-38.09,882.81,1.19,-0.53,1.85,66.30,-49.95,-3.90,31.14,9.930,
07/02/2025,12:23:51.48,-512.70,-27.34,875.98,1.95,-0.34,0.74,64.80,-49.20,-2.85,31.00,9.930,
07/02/2025,12:23:51.58,-516.11,-42.48,877.93,-0.73,0.60,0.93,65.10,-50.25,-2.55,31.19,9.930,
07/02/2025,12:23:51.68,-507.81,-35.16,885.74,0.57,-1.70,-0.17,67.20,-49.65,-3.75,31.14,9.930,
07/02/2025,12:23:51.78,-516.11,-39.55,882.81,1.28,-2.92,0.45,64.95,-49.35,-3.45,30.95,9.930,
07/02/2025,12:23:51.88,-506.35,-33.69,889.16,0.98,-0.73,-1.29,64.95,-50.10,-4.80,30.86,9.930,
07/02/2025,12:23:51.98,-521.00,-38.57,876.46,1.47,-1.11,0.73,65.40,-49.65,-3.75,31.05,9.930,
07/02/2025,12:23:52.08,-509.77,-40.53,876.46,0.82,-0.21,2.60,65.10,-50.70,-3.60,31.05,9.929,
07/02/2025,12:23:52.18,-510.74,-33.20,891.60,-1.08,1.26,-0.43,65.10,-50.25,-3.90,31.14,9.929,
07/02/2025,12:23:52.28,-513.67,-27.34,880.37,0.39,-1.42,0.14,65.10,-49.20,-3.60,31.05,9.929,
07/02/2025,12:23:52.38,-508.30,-35.16,877.44,1.45,-1.20,1.38,66.45,-49.65,-3.45,31.14,9.929,
07/02/2025,12:23:52.49,-521.48,-41.50,875.49,-2.02,-2.10,-1.02,66.0,-48.60,-3.45,31.05,9.930,
07/02/2025,12:23:52.59,-512.21,-29.79,878.42,-0.67,-0.55,0.60,64.95,-49.35,-4.20,31.05,9.930,
07/02/2025,12:23:52.69,-519.04,-33.69,875.98,-0.05,-0.98,1.34,66.60,-48.0,-3.15,30.86,9.930,
07/02/2025,12:23:52.79,-520.51,-38.57,874.51,-0.27,-1.89,-1.25,63.90,-48.90,-1.20,30.86,9.930,
07/02/2025,12:23:52.89,-521.97,-45.41,874.51,-1.18,-1.08,0.90,66.30,-48.75,-3.60,31.14,9.930,
07/02/2025,12:23:52.99,-516.60,-43.46,879.39,0.76,-0.82,2.63,65.85,-48.75,-3.60,30.81,9.930,
07/02/2025,12:23:53.09,-514.65,-30.76,883.30,0.26,-0.73,0.62,65.70,-49.65,-2.25,31.05,9.930,
07/02/2025,12:23:53.19,-509.77,-28.32,883.79,-1.69,1.59,-0.86,64.05,-49.95,-3.15,30.95,9.930,
07/02/2025,12:23:53.29,-521.00,-40.04,884.28,-0.16,-1.49,-0.63,65.40,-50.40,-3.0,31.14,9.930,
07/02/2025,12:23:53.39,-513.18,-47.36,877.44,-0.18,-0.01,1.37,65.40,-49.35,-3.45,31.05,9.930,
07/02/2025,12:23:53.49,-508.30,-34.18,882.32,-1.16,-0.95,1.44,66.30,-50.70,-3.60,31.14,9.929,
07/02/2025,12:23:53.59,-504.88,-39.55,881.35,1.48,-2.98,3.11,65.70,-50.40,-3.0,31.05,9.929,
07/02/2025,12:23:53.69,-518.55,-37.60,881.84,0.60,-2.55,1.57,65.70,-48.60,-3.45,31.24,9.929,
07/02/2025,12:23:53.80,-496.09,-42.97,885.74,-0.58,0.33,-3.39,65.70,-49.65,-4.20,31.14,9.929,
07/02/2025,12:23:53.90,-507.32,-40.53,875.49,1.23,-2.30,1.65,65.55,-49.95,-2.85,31.14,9.930,
07/02/2025,12:23:54.00,-511.72,-35.64,887.70,-0.75,0.42,-0.23,66.0,-49.65,-2.70,31.00,9.930,
07/02/2025,12:23:54.10,-534.18,-28.32,873.05,-0.82,-0.38,-1.94,65.85,-48.30,-3.15,30.95,9.930,
07/02/2025,12:23:54.20,-507.81,-33.69,872.56,0.40,-1.20,-1.24,65.55,-48.30,-2.85,31.14,9.930,
07/02/2025,12:23:54.30,-509.77,-38.09,881.84,0.82,-0.89,1.95,67.35,-50.70,-3.60,31.14,9.930,
07/02/2025,12:23:54.40,-521.97,-33.20,887.70,-2.83,1.85,-2.03,65.55,-49.20,-3.15,30.86,9.930,
07/02/2025,12:23:54.50,-509.77,-32.23,883.30,-0.09,-0.74,-3.66,67.05,-48.30,-5.40,30.86,9.930,
07/02/2025,12:23:54.60,-514.16,-32.71,875.49,0.92,-2.04,-1.91,64.95,-49.35,-4.20,31.00,9.930,
07/02/2025,12:23:54.70,-525.88,-28.32,882.81,0.21,-2.0,-1.30,65.40,-49.65,-4.20,31.19,9.930,
07/02/2025,12:23:54.80,-508.79,-35.64,867.19,0.02,-0.31,-0.30,64.65,-49.35,-1.95,31.14,9.930,
07/02/2025,12:23:54.90,-518.07,-32.23,881.35,0.56,-0.27,2.62,66.30,-49.20,-2.85,30.86,9.929,
07/02/2025,12:23:55.00,-506.35,-34.67,879.88,-0.60,0.11,-0.80,65.70,-50.40,-2.25,31.19,9.929,
07/02/2025,12:23:55.10,-515.63,-33.20,876.95,2.22,3.32,-1.84,65.55,-49.95,-3.90,30.86,9.929,
07/02/2025,12:23:55.21,-507.32,-31.74,878.91,1.20,-1.34,0.05,65.70,-48.15,-4.20,31.14,9.929,
07/02/2025,12:23:55.31,-517.58,-38.09,884.28,0.59,-1.36,0.88,65.55,-49.95,-4.35,30.67,9.930,
07/02/2025,12:23:55.41,-503.91,-37.11,875.98,1.69,1.74,0.07,67.50,-50.40,-3.75,31.05,9.930,
07/02/2025,12:23:55.51,-516.11,-53.22,878.42,-0.62,-2.13,1.63,65.70,-49.35,-3.0,31.14,9.930,
07/02/2025,12:23:55.61,-511.23,-33.20,874.51,-0.52,-1.82,-0.76,65.85,-49.20,-2.85,31.05,9.930,
07/02/2025,12:23:55.71,-521.97,-35.64,873.54,-1.15,0.83,0.65,64.05,-49.95,-3.60,31.00,9.930,
07/02/2025,12:23:55.81,-506.35,-41.50,880.86,0.07,-1.27,-1.09,66.30,-50.70,-2.55,31.00,9.930,
07/02/2025,12:23:55.91,-518.55,-33.20,876.95,1.46,-1.66,2.30,64.95,-49.35,-3.75,31.05,9.930,
07/02/2025,12:23:56.01,-508.30,-39.55,878.42,-0.27,0.65,-1.0,65.85,-49.20,-2.55,31.05,9.930,
07/02/2025,12:23:56.11,-507.81,-36.13,868.16,0.18,0.60,0.66,66.0,-49.65,-4.50,31.05,9.930,
07/02/2025,12:23:56.21,-510.25,-38.09,868.16,0.79,-2.94,1.57,66.30,-49.20,-3.15,31.19,9.930,
07/02/2025,12:23:56.31,-519.04,-37.11,880.86,-1.44,0.08,-3.40,65.70,-48.90,-4.80,31.05,9.929,
07/02/2025,12:23:56.41,-514.65,-37.11,893.07,-1.13,-1.41,-0.68,65.85,-48.75,-4.65,31.05,9.929,
07/02/2025,12:23:56.51,-513.18,-39.55,882.32,-0.15,0.74,0.95,66.0,-48.90,-3.0,31.24,9.929,
07/02/2025,12:23:56.62,-518.55,-48.34,882.32,-2.89,-0.73,-1.88,64.80,-51.0,-3.60,30.95,9.929,
07/02/2025,12:23:56.72,-513.18,-44.92,876.95,-0.76,0.21,-1.80,64.35,-49.95,-2.85,31.14,9.930,
07/02/2025,12:23:56.82,-509.77,-37.60,883.30,0.96,-0.13,1.54,66.30,-49.95,-3.15,30.67,9.930,
