rtcDate,rtcTime,aX,aY,aZ,gX,gY,gZ,mX,mY,mZ,imu_degC,output_Hz,
01/01/2000,00:00:01.32,-243.65,-185.55,850.59,26.33,44.45,17.15,38.55,-17.85,11.85,28.32,0.0,
01/01/2000,00:00:01.42,-285.64,-72.75,1076.66,30.77,-9.26,17.85,40.50,-14.55,11.70,28.56,20.0,
01/01/2000,00:00:01.52,-336.91,-64.45,1252.44,13.79,5.64,7.77,40.05,-15.45,11.40,28.41,15.0,
01/01/2000,00:00:01.63,-217.77,-24.90,714.36,-66.90,-39.23,0.55,43.20,-8.40,7.20,28.37,12.903,
01/01/2000,00:00:01.72,-354.49,69.82,922.36,-2.22,-0.93,1.08,42.0,-9.15,9.45,28.41,12.500,
01/01/2000,00:00:01.82,-363.77,62.50,957.52,0.35,0.77,-2.15,43.35,-9.0,10.05,28.51,11.765,
01/01/2000,00:00:01.92,-371.09,47.36,949.71,0.52,-1.03,0.37,43.20,-8.40,7.95,28.41,11.475,
01/01/2000,00:00:02.02,-376.46,56.64,965.82,0.95,1.62,-1.15,45.0,-7.20,7.95,28.41,11.429,
01/01/2000,00:00:02.12,-367.68,52.73,958.98,-0.74,-3.20,2.62,43.20,-8.40,7.95,28.51,11.250,
01/01/2000,00:00:02.22,-362.30,41.99,986.82,-17.50,5.49,3.57,42.90,-8.55,8.85,28.37,11.111,
01/01/2000,00:00:02.32,-340.33,-13.67,938.96,3.36,-1.51,-0.05,43.50,-9.60,8.70,28.22,11.0,
01/01/2000,00:00:02.42,-365.23,52.73,946.29,0.42,-0.11,-0.12,42.90,-9.75,7.35,28.32,10.909,
01/01/2000,00:00:02.52,-343.26,20.02,984.86,-4.01,0.31,-1.21,44.25,-8.70,6.45,28.37,10.833,
01/01/2000,00:00:02.62,-382.81,33.20,948.73,5.83,-1.73,5.06,42.90,-7.80,7.80,28.51,10.687,
01/01/2000,00:00:02.72,-372.07,45.90,975.10,2.12,-0.55,0.34,43.95,-7.65,8.40,28.41,10.638,
01/01/2000,00:00:02.82,-366.21,56.64,941.89,-2.11,-0.88,1.16,43.50,-8.40,6.90,28.37,10.596,
01/01/2000,00:00:02.92,-445.31,49.32,943.85,-18.23,2.71,2.53,43.65,-9.30,6.30,28.51,10.559,
01/01/2000,00:00:03.03,-382.32,4.88,972.17,24.50,-1.78,7.72,42.60,-7.35,8.55,28.51,10.526,
01/01/2000,00:00:03.13,-338.38,10.25,976.56,15.09,8.74,23.95,43.35,-7.80,8.10,28.51,10.497,
01/01/2000,00:00:03.23,-302.25,148.93,911.62,9.12,16.31,41.87,41.85,-3.60,7.80,28.32,10.471,
01/01/2000,00:00:03.33,-267.09,184.08,907.23,-37.63,19.93,54.75,42.15,0.90,8.55,28.37,10.448,
01/01/2000,00:00:03.43,-335.45,132.81,960.94,-27.76,-11.55,45.0,41.70,2.25,8.40,28.22,10.427,
01/01/2000,00:00:03.53,-248.05,80.57,953.61,-44.74,-7.48,47.90,40.05,5.10,10.05,28.22,10.407,
01/01/2000,00:00:03.63,-273.93,26.86,935.06,-36.15,-10.38,33.56,36.0,7.65,11.25,28.37,10.390,
01/01/2000,00:00:03.73,-366.21,111.82,1029.30,-42.76,9.27,-1.22,35.70,7.65,13.05,28.56,10.373,
01/01/2000,00:00:03.83,-144.53,-90.82,937.99,-49.97,1.54,16.05,35.70,5.25,13.80,28.37,10.359,
01/01/2000,00:00:03.93,-257.81,-104.49,888.18,12.72,5.18,-21.20,37.35,3.60,13.65,28.41,10.345,
01/01/2000,00:00:04.03,-308.59,-73.73,929.20,2.92,2.66,-20.85,38.25,2.25,12.30,28.32,10.332,
01/01/2000,00:00:04.13,-343.75,35.64,1083.01,31.91,3.39,3.0,38.55,2.85,11.85,28.17,10.320,
01/01/2000,00:00:04.23,-332.03,-0.98,987.30,1.14,-1.02,-1.18,38.70,3.0,11.25,28.32,10.309,
01/01/2000,00:00:04.33,-343.75,3.42,994.63,0.29,5.76,4.55,37.50,3.45,10.95,28.51,10.299,
01/01/2000,00:00:04.43,-346.68,-18.07,970.70,-1.88,1.10,-1.24,37.20,2.55,12.0,28.32,10.256,
01/01/2000,00:00:04.53,-338.38,-14.65,959.96,-1.46,0.80,-1.06,39.30,3.90,12.90,28.37,10.248,
01/01/2000,00:00:04.63,-340.82,-15.14,972.17,0.30,-1.31,-0.14,38.85,2.85,11.40,28.37,10.241,
01/01/2000,00:00:04.73,-340.33,-15.14,956.05,0.27,0.14,-0.02,38.10,2.40,10.35,28.32,10.234,
01/01/2000,00:00:04.84,-336.43,-4.39,975.10,1.44,-2.76,2.50,38.70,2.55,11.70,28.41,10.227,
01/01/2000,00:00:04.94,-334.47,-7.32,971.19,1.18,-1.53,2.76,38.55,3.15,11.40,28.41,10.221,
01/01/2000,00:00:05.04,-349.61,-21.97,963.87,-1.95,1.92,-1.10,38.70,3.0,11.25,28.22,10.215,
01/01/2000,00:00:05.14,-332.03,-18.55,961.91,0.07,0.63,0.29,38.85,2.40,12.15,28.51,10.209,
01/01/2000,00:00:05.24,-336.43,-20.51,960.94,-1.16,0.57,-2.18,38.55,2.10,11.85,28.37,10.204,
01/01/2000,00:00:05.34,-339.84,-6.84,962.40,0.48,1.26,-0.32,38.85,3.90,12.60,28.37,10.199,
01/01/2000,00:00:05.44,-346.68,-10.74,959.96,-0.66,-0.53,0.65,37.95,4.20,12.30,28.32,10.194,
01/01/2000,00:00:05.54,-337.40,-17.09,963.38,0.05,-1.12,2.49,38.70,2.55,12.75,28.17,10.190,
01/01/2000,00:00:05.64,-328.13,-4.39,966.80,-0.31,0.24,-1.69,38.85,4.80,13.20,28.03,10.185,
01/01/2000,00:00:05.74,-323.24,5.37,961.43,2.02,-2.62,0.90,38.25,3.75,11.25,28.41,10.181,
01/01/2000,00:00:05.84,-330.57,-12.21,970.21,-1.73,1.02,-0.99,39.45,3.45,12.30,28.22,10.177,
01/01/2000,00:00:05.94,-340.33,-16.11,956.05,-1.95,0.57,-3.22,39.0,3.75,12.30,28.41,10.173,
01/01/2000,00:00:06.04,-342.29,-11.23,963.87,-0.13,-1.73,2.53,38.85,3.60,11.40,28.32,10.169,
01/01/2000,00:00:06.14,-335.94,-0.98,958.01,1.16,-0.02,-0.98,37.20,3.75,12.0,28.37,10.145,
01/01/2000,00:00:06.24,-335.45,-15.14,958.50,-0.21,0.55,1.10,37.80,3.90,10.35,28.51,10.142,
01/01/2000,00:00:06.34,-343.26,-9.77,960.94,-2.23,0.40,-4.31,37.80,2.40,11.85,28.41,10.139,
01/01/2000,00:00:06.44,-329.10,-14.16,964.36,0.28,-0.95,-0.11,37.50,3.0,11.25,28.51,10.136,
01/01/2000,00:00:06.55,-335.45,-13.67,959.47,1.12,-0.61,1.11,38.55,3.60,12.90,28.17,10.134,
01/01/2000,00:00:06.65,-342.77,-10.25,964.84,-1.21,-1.85,3.20,38.25,3.45,12.0,28.37,10.131,
01/01/2000,00:00:06.75,-334.47,1.46,993.16,1.15,-1.64,0.82,38.55,2.85,10.65,28.37,10.129,
01/01/2000,00:00:06.85,-329.10,-14.65,965.82,0.13,-1.03,1.85,38.55,3.60,11.85,28.32,10.127,
01/01/2000,00:00:06.95,-323.73,-2.93,957.03,-1.02,0.74,-3.41,37.95,3.0,11.70,28.41,10.124,
01/01/2000,00:00:07.05,-339.36,-18.07,982.42,1.51,-2.49,-0.53,38.25,3.0,11.25,28.41,10.122,
01/01/2000,00:00:07.15,-336.43,-11.23,965.82,0.28,-0.45,0.84,38.85,2.85,11.85,28.41,10.120,
01/01/2000,00:00:07.25,-343.75,-25.39,963.87,2.29,-1.50,1.44,38.55,2.40,10.65,28.32,10.118,
01/01/2000,00:00:07.35,-350.59,2.93,967.29,0.80,-1.93,1.18,40.20,3.75,11.70,28.37,10.116,
01/01/2000,00:00:07.45,-336.43,-18.07,961.91,0.46,0.50,1.35,38.70,3.0,10.50,28.37,10.114,
01/01/2000,00:00:07.55,-339.84,-1.46,970.21,1.27,-1.09,1.58,38.70,4.50,12.30,28.32,10.112,
01/01/2000,00:00:07.65,-336.91,-22.46,943.85,0.98,-0.20,1.38,37.50,2.55,12.30,28.41,10.111,
01/01/2000,00:00:07.75,-337.40,-15.14,962.40,0.35,0.68,-1.55,37.95,1.80,12.75,28.41,10.109,
01/01/2000,00:00:07.85,-340.82,-3.42,957.03,-0.95,-1.83,-1.82,37.05,2.40,13.20,28.41,10.107,
01/01/2000,00:00:07.95,-342.29,-7.32,954.10,-0.13,-1.32,0.28,38.85,2.85,12.15,28.56,10.090,
01/01/2000,00:00:08.05,-343.26,-14.65,968.26,2.64,-3.74,1.45,38.25,3.45,12.0,28.37,10.089,
01/01/2000,00:00:08.15,-322.27,-29.30,965.82,1.47,-1.43,1.56,37.50,2.25,11.70,28.37,10.088,
01/01/2000,00:00:08.25,-342.77,-12.70,962.40,-0.97,-0.21,1.41,38.25,3.75,11.25,28.32,10.086,
01/01/2000,00:00:08.36,-345.70,3.42,962.89,-0.08,0.24,-0.63,39.0,2.55,11.25,28.51,10.085,
01/01/2000,00:00:08.46,-341.31,-6.84,963.87,-1.30,0.66,-2.34,37.80,2.40,11.40,28.37,10.084,
01/01/2000,00:00:08.56,-333.98,-15.14,961.91,-1.03,-0.50,0.09,37.35,2.40,10.65,28.37,10.083,
01/01/2000,00:00:08.66,-332.52,-14.16,965.33,0.07,-2.85,2.43,38.55,3.90,12.15,28.41,10.082,
01/01/2000,00:00:08.76,-328.13,-21.48,965.33,-1.46,-3.44,-0.92,37.50,2.55,11.70,28.08,10.081,
01/01/2000,00:00:08.86,-338.87,-5.86,957.03,0.85,-1.06,0.53,37.05,1.65,11.85,28.41,10.080,
01/01/2000,00:00:08.96,-345.21,-4.39,964.36,-1.26,1.52,1.29,38.25,4.20,11.25,28.41,10.079,
01/01/2000,00:00:09.06,-345.21,-20.02,979.49,-0.85,-0.33,-2.14,39.45,3.75,12.75,28.60,10.078,
01/01/2000,00:00:09.16,-334.47,-19.04,967.29,1.78,0.50,-1.11,39.45,2.55,12.75,28.56,10.077,
01/01/2000,00:00:09.26,-323.73,-8.79,972.17,-0.24,-1.64,1.55,38.10,3.60,10.65,28.17,10.076,
01/01/2000,00:00:09.36,-334.96,-16.11,964.36,0.59,-1.23,2.44,39.60,4.35,12.60,28.41,10.075,
01/01/2000,00:00:09.46,-324.71,-15.14,947.75,1.0,0.33,0.42,38.85,3.90,12.60,28.60,10.074,
01/01/2000,00:00:09.56,-333.98,-18.55,943.85,-1.61,-0.56,-1.24,38.55,3.15,12.15,28.56,10.073,
01/01/2000,00:00:09.66,-342.77,-22.46,963.38,-2.47,2.56,-0.70,37.20,2.25,11.25,28.08,10.060,
01/01/2000,00:00:09.76,-333.01,-16.60,964.84,0.61,-2.37,2.63,38.55,3.90,11.10,28.37,10.059,
01/01/2000,00:00:09.86,-344.24,-2.44,962.89,2.50,0.02,1.19,37.80,3.15,12.90,28.32,10.058,
01/01/2000,00:00:09.96,-333.50,-18.55,959.47,1.37,-2.07,0.81,37.50,3.75,11.70,28.51,10.058,
01/01/2000,00:00:10.07,-343.75,-7.32,964.36,0.47,0.65,-1.63,39.0,4.95,10.95,28.17,10.057,
01/01/2000,00:00:10.17,-338.87,-18.07,962.89,-1.66,-0.38,1.40,38.25,3.0,11.70,28.37,10.056,
01/01/2000,00:00:10.27,-326.66,-9.28,956.54,-0.31,-0.55,2.18,38.25,3.45,11.25,28.56,10.056,
01/01/2000,00:00:10.37,-322.75,-16.11,959.96,1.37,-0.64,2.69,38.70,1.05,12.30,28.32,10.055,
01/01/2000,00:00:10.47,-339.84,-27.34,965.33,1.14,-1.13,3.39,37.50,3.75,11.70,28.37,10.055,
01/01/2000,00:00:10.57,-349.12,-16.11,966.31,1.25,-0.23,2.92,38.85,2.85,10.35,28.51,10.054,
01/01/2000,00:00:10.67,-343.75,-7.32,954.59,0.18,-0.15,-0.30,38.70,4.20,12.0,28.22,10.053,
01/01/2000,00:00:10.77,-338.87,-5.86,963.38,-1.05,0.71,-3.50,39.30,2.10,12.15,28.51,10.053,
01/01/2000,00:00:10.87,-338.87,-21.00,958.01,0.60,-3.16,0.10,39.30,4.35,11.40,28.51,10.052,
01/01/2000,00:00:10.97,-334.96,-11.72,966.31,0.66,-1.15,2.80,38.85,3.60,11.85,28.60,10.052,
01/01/2000,00:00:11.07,-340.33,-14.16,967.29,2.49,1.27,2.34,38.85,3.60,11.40,28.37,10.051,
01/01/2000,00:00:11.17,-335.45,-23.44,971.68,0.66,-1.21,1.21,39.30,2.40,12.15,28.56,10.051,
01/01/2000,00:00:11.27,-337.89,5.37,963.87,0.23,-1.79,1.27,39.45,3.75,12.30,28.56,10.050,
01/01/2000,00:00:11.37,-347.17,-22.46,978.03,-0.89,-0.85,-0.68,37.05,3.60,12.15,28.41,10.040,
01/01/2000,00:00:11.47,-343.75,-19.53,967.77,0.48,0.08,0.36,38.55,4.35,11.40,28.56,10.039,
01/01/2000,00:00:11.57,-333.98,0.98,963.87,0.26,0.65,-0.50,37.05,4.35,11.40,28.60,10.039,
01/01/2000,00:00:11.67,-339.36,-9.77,959.96,-1.92,-1.71,0.56,38.55,2.85,11.40,28.37,10.039,
01/01/2000,00:00:11.78,-337.40,-12.21,962.89,0.48,0.89,-0.54,37.95,3.45,12.30,28.41,10.038,
01/01/2000,00:00:11.88,-332.52,-15.14,971.68,-0.58,-0.02,-0.47,37.50,3.0,11.70,28.60,10.038,
01/01/2000,00:00:11.98,-336.91,-21.48,962.40,0.39,2.09,3.37,38.25,4.50,12.30,28.56,10.038,
01/01/2000,00:00:12.08,-325.68,-15.63,972.66,2.34,-2.33,3.06,37.95,3.45,12.75,28.75,10.037,
01/01/2000,00:00:12.18,-340.82,-16.60,959.47,0.67,-1.32,0.14,38.10,3.60,11.10,28.56,10.037,
01/01/2000,00:00:12.28,-330.57,-12.70,969.73,-0.05,-1.51,-0.75,39.60,2.10,11.10,28.37,10.036,
01/01/2000,00:00:12.38,-333.98,-16.60,963.87,0.50,0.89,2.08,38.85,2.40,11.40,28.41,10.036,
01/01/2000,00:00:12.48,-334.47,-10.25,965.33,-0.66,-0.18,-1.60,38.70,2.55,11.70,28.51,10.036,
01/01/2000,00:00:12.58,-337.89,-13.18,980.47,-0.40,2.98,0.09,37.05,3.60,12.60,28.60,10.036,
01/01/2000,00:00:12.68,-341.80,-12.70,955.57,-1.87,0.12,-0.32,38.85,3.90,12.15,28.70,10.035,
01/01/2000,00:00:12.78,-335.45,0.98,970.70,-0.98,2.85,0.33,39.60,3.15,12.15,28.41,10.035,
01/01/2000,00:00:12.88,-349.12,-31.25,968.75,0.39,-0.13,1.08,37.35,3.90,13.20,28.51,10.035,
01/01/2000,00:00:12.98,-328.13,3.91,956.54,0.88,-0.79,0.08,38.10,4.35,11.10,28.51,10.034,
01/01/2000,00:00:13.08,-329.10,9.77,962.89,0.26,0.10,0.96,39.0,4.20,12.0,28.37,10.034,
01/01/2000,00:00:13.18,-345.70,-12.70,1004.39,-0.69,-1.08,-5.50,38.70,2.55,11.25,28.60,10.025,
01/01/2000,00:00:13.28,-337.89,-9.28,957.52,-0.07,-0.81,-3.68,38.85,3.90,12.15,28.70,10.025,
01/01/2000,00:00:13.38,-332.52,-11.23,972.66,-1.54,0.64,-2.11,38.10,3.90,12.60,28.41,10.025,
01/01/2000,00:00:13.49,-333.50,-17.09,967.77,-1.69,0.44,1.54,38.85,4.35,12.15,28.22,10.025,
01/01/2000,00:00:13.59,-335.94,-11.72,962.40,-0.05,0.97,-0.92,37.20,2.25,10.50,28.60,10.024,
01/01/2000,00:00:13.69,-343.26,-12.70,961.91,1.81,0.67,0.95,38.85,3.90,10.65,28.41,10.024,
01/01/2000,00:00:13.79,-331.05,-10.74,969.73,1.73,-0.16,1.26,39.30,2.40,11.10,28.60,10.024,
01/01/2000,00:00:13.89,-333.98,-1.95,971.19,-0.20,1.67,0.65,37.20,4.20,12.30,28.60,10.024,
01/01/2000,00:00:13.99,-333.50,-9.28,961.91,-1.07,0.16,-1.84,37.95,3.45,11.70,28.56,10.024,
01/01/2000,00:00:14.09,-339.84,-18.07,971.19,-0.95,1.37,-1.15,38.55,3.60,11.85,28.37,10.023,
01/01/2000,00:00:14.19,-340.33,-16.60,964.36,0.47,-0.04,-4.24,39.30,2.85,11.10,28.56,10.023,
01/01/2000,00:00:14.29,-336.43,-8.30,971.19,-0.33,0.97,2.23,37.80,3.60,12.15,28.41,10.023,
01/01/2000,00:00:14.39,-342.29,-9.28,960.94,1.66,-0.18,1.19,38.55,3.60,12.15,28.60,10.023,
01/01/2000,00:00:14.49,-343.26,-20.51,964.36,1.09,-0.10,-0.43,38.10,2.10,9.30,28.32,10.023,
01/01/2000,00:00:14.59,-321.78,-8.79,958.98,-2.31,0.60,-0.91,38.85,3.15,11.85,28.51,10.023,
01/01/2000,00:00:14.69,-343.26,-12.70,959.96,-1.22,2.49,-2.92,38.70,1.80,11.70,28.37,10.022,
01/01/2000,00:00:14.79,-326.17,-6.84,955.57,-0.60,-0.85,-4.56,38.70,3.45,10.20,28.56,10.022,
01/01/2000,00:00:14.89,-328.13,-5.37,963.87,0.67,0.76,0.66,37.80,2.85,12.60,28.56,10.015,
01/01/2000,00:00:14.99,-339.36,-8.79,955.08,0.63,-1.22,0.64,39.30,2.40,12.15,28.75,10.015,
01/01/2000,00:00:15.09,-331.54,-12.70,963.87,0.56,1.80,1.91,38.55,3.15,11.10,28.60,10.015,
01/01/2000,00:00:15.20,-352.54,-9.28,963.38,1.47,-0.35,-0.69,37.05,3.15,12.15,28.60,10.014,
01/01/2000,00:00:15.30,-334.96,-17.09,971.68,0.12,-1.07,0.05,39.30,2.10,11.40,28.41,10.014,
01/01/2000,00:00:15.40,-340.33,-11.72,960.94,-1.08,-0.73,-0.07,38.55,3.15,11.40,28.41,10.014,
01/01/2000,00:00:15.50,-340.33,-14.16,970.21,1.44,-2.04,1.50,37.95,3.45,12.75,28.60,10.014,
01/01/2000,00:00:15.60,-333.98,1.46,948.24,0.18,0.73,-1.29,37.35,3.60,11.40,28.56,10.014,
01/01/2000,00:00:15.70,-336.43,-10.74,953.13,2.11,-1.70,-0.48,37.35,3.60,11.85,28.60,10.014,
01/01/2000,00:00:15.80,-341.80,-7.32,957.52,-1.11,0.50,0.73,38.10,3.60,12.60,28.70,10.014,
01/01/2000,00:00:15.90,-352.54,-15.14,963.38,0.73,-1.61,1.47,37.80,3.60,12.90,28.41,10.014,
01/01/2000,00:00:16.00,-332.52,-15.63,965.33,0.94,-2.11,-0.21,39.45,1.05,10.95,28.70,10.014,
01/01/2000,00:00:16.10,-327.64,-22.95,961.43,-0.14,-0.02,-0.65,39.30,4.35,12.60,28.70,10.014,
01/01/2000,00:00:16.20,-334.96,-15.14,970.70,-0.40,0.76,-2.46,37.95,3.75,12.0,28.41,10.013,
01/01/2000,00:00:16.30,-336.91,-25.88,957.52,-2.15,-2.06,-1.84,38.25,3.0,11.25,28.70,10.013,
01/01/2000,00:00:16.40,-311.52,5.86,963.38,1.19,-2.89,0.46,37.05,3.60,11.85,28.51,10.013,
01/01/2000,00:00:16.50,-332.03,-8.79,951.66,0.20,0.85,0.08,37.35,2.85,11.40,28.60,10.013,
01/01/2000,00:00:16.60,-354.49,-5.37,965.82,0.72,0.04,-1.48,37.20,3.75,12.30,28.70,10.007,
01/01/2000,00:00:16.70,-327.64,-5.37,967.77,0.89,-3.16,-0.77,38.70,4.20,12.30,28.60,10.006,
01/01/2000,00:00:16.80,-337.89,-5.86,960.45,1.03,0.45,-2.07,37.50,4.50,11.25,28.51,10.006,
01/01/2000,00:00:16.91,-322.27,-5.86,962.89,0.69,0.24,0.82,38.85,3.90,11.40,28.56,10.006,
01/01/2000,00:00:17.01,-339.36,-5.37,960.45,-1.18,0.30,0.20,38.25,5.25,12.30,28.70,10.006,
01/01/2000,00:00:17.11,-343.26,-14.65,965.82,-0.24,3.59,0.75,37.35,3.90,11.85,28.75,10.006,
01/01/2000,00:00:17.21,-326.66,-24.41,954.10,1.34,-2.11,0.91,38.85,3.90,11.85,28.70,10.006,
01/01/2000,00:00:17.31,-315.92,-15.14,960.45,0.62,-0.35,0.72,38.55,2.85,11.40,28.41,10.006,
01/01/2000,00:00:17.41,-352.05,-1.95,969.73,1.10,0.11,1.38,38.85,2.85,11.85,28.75,10.006,
01/01/2000,00:00:17.51,-324.22,-23.44,949.71,-0.85,2.42,-3.20,38.10,3.60,12.60,28.56,10.006,
01/01/2000,00:00:17.61,-317.87,-5.37,953.61,0.51,-1.89,2.85,38.25,4.50,10.95,28.51,10.006,
01/01/2000,00:00:17.71,-335.45,-17.09,960.45,-0.62,-0.68,2.0,38.10,3.60,12.15,28.37,10.006,
01/01/2000,00:00:17.81,-328.61,-14.16,953.61,-2.29,-0.09,-3.92,38.10,1.65,10.65,28.22,10.006,
01/01/2000,00:00:17.91,-329.59,-7.81,966.80,-0.69,-1.51,1.36,38.55,3.90,12.60,28.60,10.006,
01/01/2000,00:00:18.01,-335.45,-14.16,966.80,1.71,-0.01,0.55,38.85,2.85,11.10,28.75,10.006,
01/01/2000,00:00:18.11,-332.52,-24.90,960.94,-0.17,-0.53,0.05,36.75,4.20,11.25,28.84,10.006,
01/01/2000,00:00:18.21,-333.98,-15.63,964.36,-2.11,1.20,-0.03,38.85,3.90,11.85,28.41,10.0,
01/01/2000,00:00:18.31,-342.29,-12.21,959.96,0.65,-0.80,-0.81,38.70,3.0,11.25,28.60,10.0,
01/01/2000,00:00:18.41,-344.24,-11.23,962.40,2.98,-1.51,1.18,38.55,3.60,11.40,28.84,10.0,
01/01/2000,00:00:18.51,-327.64,-0.49,962.40,-0.11,-0.99,-2.97,39.0,3.75,12.0,28.56,10.0,
01/01/2000,00:00:18.62,-342.77,-17.58,964.84,0.23,-0.65,1.47,38.55,3.60,11.85,28.56,10.0,
01/01/2000,00:00:18.72,-333.98,-1.46,960.45,-0.06,-1.56,-1.45,38.55,3.90,11.85,28.84,10.0,
01/01/2000,00:00:18.82,-345.70,-20.02,959.47,0.54,0.79,3.47,39.45,4.95,12.75,28.70,10.0,
01/01/2000,00:00:18.92,-342.77,-6.35,972.66,-1.10,0.16,-2.44,39.30,3.60,12.15,28.70,10.0,
01/01/2000,00:00:19.02,-335.94,-9.28,952.64,-0.58,-2.11,2.45,39.0,2.25,12.0,28.56,10.0,
01/01/2000,00:00:19.12,-337.89,2.93,960.45,0.0,0.34,-2.92,38.70,2.55,12.0,28.37,10.0,
01/01/2000,00:00:19.22,-348.14,-6.84,964.36,0.01,0.63,0.14,37.95,2.55,11.25,28.75,10.0,
01/01/2000,00:00:19.32,-324.71,-15.63,958.01,-0.20,-1.47,-0.03,37.35,3.60,12.15,28.70,10.0,
01/01/2000,00:00:19.42,-341.31,-8.30,982.42,-0.85,0.55,-0.63,37.35,4.35,11.40,28.51,10.0,
01/01/2000,00:00:19.52,-332.03,-8.30,971.68,2.10,-0.54,1.29,38.85,3.15,11.40,28.37,10.0,
01/01/2000,00:00:19.62,-341.31,-17.09,962.89,0.93,1.10,-1.20,39.0,3.45,13.05,28.70,10.0,
01/01/2000,00:00:19.72,-321.78,-10.25,959.47,1.80,-2.50,1.18,38.25,3.0,12.75,28.60,10.0,
01/01/2000,00:00:19.82,-334.96,3.42,976.56,1.65,-2.78,3.27,38.10,4.80,12.15,28.60,10.0,
01/01/2000,00:00:19.92,-338.87,-12.70,966.31,1.08,-1.15,1.53,38.70,3.45,10.95,28.75,9.995,
01/01/2000,00:00:20.02,-333.98,-14.65,952.64,0.39,-0.92,0.28,38.25,3.75,11.25,28.56,9.995,
01/01/2000,00:00:20.12,-345.21,-12.21,958.50,-2.14,3.14,-3.11,38.10,3.60,12.60,28.70,9.995,
01/01/2000,00:00:20.22,-345.21,-15.63,958.50,0.16,-1.88,2.44,38.85,4.35,11.40,28.75,9.995,
01/01/2000,00:00:20.33,-331.05,-6.35,975.10,-1.56,-0.12,-0.89,38.10,3.15,11.85,28.56,9.995,
01/01/2000,00:00:20.43,-342.29,-3.42,962.40,-0.59,1.67,-1.27,38.70,3.75,12.30,28.75,9.995,
01/01/2000,00:00:20.53,-330.57,-19.53,965.82,0.43,-0.44,-0.84,37.35,4.80,11.40,28.70,9.995,
01/01/2000,00:00:20.63,-343.75,-14.16,956.54,1.26,-3.47,1.79,39.30,5.10,12.90,28.84,9.995,
01/01/2000,00:00:20.73,-338.38,-13.67,980.47,-0.23,1.79,-0.03,38.25,4.20,12.30,28.70,9.995,
01/01/2000,00:00:20.83,-341.31,-10.25,970.21,0.10,-2.57,4.13,38.55,3.90,10.65,28.37,9.995,
01/01/2000,00:00:20.93,-340.82,-15.63,966.80,1.52,-1.12,-0.31,39.30,2.85,12.15,28.75,9.995,
01/01/2000,00:00:21.03,-330.08,-13.18,951.66,1.56,1.17,-0.24,39.30,2.85,11.85,28.60,9.995,
01/01/2000,00:00:21.13,-329.10,-6.35,955.08,1.38,-0.11,2.70,37.35,3.60,11.85,28.56,9.995,
01/01/2000,00:00:21.23,-336.91,-13.67,965.82,0.45,0.78,0.95,37.95,3.45,12.75,28.70,9.995,
01/01/2000,00:00:21.33,-337.89,-18.55,965.33,0.14,-2.69,1.72,36.75,3.0,11.70,28.75,9.995,
01/01/2000,00:00:21.43,-322.27,-7.32,968.75,-0.68,1.53,-2.02,38.55,4.80,12.15,28.84,9.995,
01/01/2000,00:00:21.53,-336.91,-14.16,960.45,-0.82,-0.12,-1.33,39.45,3.75,12.30,28.56,9.995,
01/01/2000,00:00:21.63,-339.84,-18.07,969.73,-1.13,0.15,0.59,38.85,2.10,12.15,28.70,9.990,
01/01/2000,00:00:21.73,-330.57,-1.95,959.96,1.08,2.25,-2.27,37.80,2.85,11.40,28.70,9.990,
01/01/2000,00:00:21.83,-330.08,-15.14,963.87,-0.02,2.02,-0.15,38.55,2.85,12.15,28.51,9.990,
01/01/2000,00:00:21.94,-339.36,-11.72,957.52,-0.28,-0.45,0.12,38.70,5.25,10.95,28.70,9.990,
01/01/2000,00:00:22.04,-328.13,-14.65,954.59,1.13,-0.23,-0.89,38.10,4.35,12.60,28.84,9.990,
01/01/2000,00:00:22.14,-348.14,-2.44,958.50,-1.15,0.66,-1.15,37.80,2.85,12.90,28.60,9.990,
01/01/2000,00:00:22.24,-333.01,-15.14,958.50,1.65,2.17,-0.27,37.50,3.0,12.0,28.41,9.990,
01/01/2000,00:00:22.34,-333.01,-14.16,957.03,0.84,0.48,0.03,37.05,3.60,12.15,28.94,9.990,
01/01/2000,00:00:22.44,-335.94,-30.27,971.19,2.25,0.0,-0.26,39.30,3.90,12.90,28.70,9.991,
01/01/2000,00:00:22.54,-344.24,-7.32,952.64,-0.75,-1.43,-1.46,38.25,2.55,12.30,28.56,9.991,
01/01/2000,00:00:22.64,-322.27,-5.86,962.89,-1.71,-0.23,-1.71,39.30,3.60,11.85,28.60,9.991,
01/01/2000,00:00:22.74,-349.12,-8.79,987.30,0.25,1.60,0.73,37.95,3.0,12.0,28.84,9.991,
01/01/2000,00:00:22.84,-344.24,-20.51,966.80,-0.71,0.37,0.51,37.35,3.90,11.85,28.41,9.991,
01/01/2000,00:00:22.94,-338.38,-14.65,959.96,-0.27,-0.01,-1.34,38.55,3.15,11.10,28.56,9.991,
01/01/2000,00:00:23.04,-342.29,-6.84,971.19,0.34,-2.44,0.38,37.95,4.20,12.75,28.84,9.991,
01/01/2000,00:00:23.14,-352.54,-16.60,977.05,-1.13,-0.43,1.01,38.25,3.75,12.75,28.70,9.991,
01/01/2000,00:00:23.24,-321.29,-21.48,965.82,-1.66,-1.08,-1.40,37.05,3.15,11.40,28.75,9.986,
01/01/2000,00:00:23.34,-343.26,-8.30,955.08,0.16,-0.02,1.11,39.75,3.75,11.70,28.75,9.986,
01/01/2000,00:00:23.44,-331.54,-17.09,965.33,-0.60,-1.69,0.18,38.10,3.15,11.40,28.75,9.986,
01/01/2000,00:00:23.54,-333.01,1.95,971.68,-1.52,-1.27,0.81,39.60,3.15,10.65,28.89,9.987,
01/01/2000,00:00:23.65,-327.64,-17.09,960.45,0.02,-0.81,-0.24,37.50,2.55,11.25,28.56,9.987,
01/01/2000,00:00:23.75,-341.31,-2.44,957.52,-0.47,-0.80,1.13,39.45,4.20,12.30,28.51,9.987,
01/01/2000,00:00:23.85,-337.89,-18.07,962.89,-1.85,-1.37,0.95,38.10,2.85,12.60,28.70,9.987,
01/01/2000,00:00:23.95,-341.31,-19.04,967.77,-1.0,-0.30,-1.24,40.05,5.10,11.85,28.84,9.987,
01/01/2000,00:00:24.05,-330.57,-22.95,969.73,-0.63,1.92,-4.21,39.30,3.90,11.40,28.84,9.987,
01/01/2000,00:00:24.15,-337.89,-7.81,959.47,2.95,-1.47,-0.24,37.95,3.75,12.0,28.89,9.987,
01/01/2000,00:00:24.25,-327.64,-12.70,960.94,-0.05,-1.24,-2.28,38.10,4.35,11.85,28.89,9.987,
01/01/2000,00:00:24.35,-344.73,-7.32,945.80,-0.16,0.41,-0.42,38.70,3.75,11.25,28.60,9.987,
01/01/2000,00:00:24.45,-348.14,-11.23,979.98,2.50,-1.51,1.76,39.45,2.55,12.0,28.75,9.987,
01/01/2000,00:00:24.55,-330.57,-9.28,969.24,2.44,-1.55,-0.41,39.0,3.75,11.70,28.56,9.987,
01/01/2000,00:00:24.65,-338.38,-9.77,966.80,-0.69,0.01,-2.20,38.25,4.95,12.30,28.56,9.987,
01/01/2000,00:00:24.75,-334.47,-11.23,966.80,-1.08,-0.89,1.50,39.0,3.75,12.30,29.04,9.987,
01/01/2000,00:00:24.85,-349.61,-19.04,957.52,1.08,1.69,3.74,38.55,3.15,11.85,28.70,9.987,
01/01/2000,00:00:24.95,-337.40,-25.39,959.96,0.29,0.15,3.80,37.80,4.35,11.10,28.60,9.983,
01/01/2000,00:00:25.05,-344.73,-6.84,958.98,-0.62,-1.78,-1.44,38.25,3.75,11.25,28.84,9.983,
01/01/2000,00:00:25.15,-358.40,-28.81,972.66,-0.27,-3.53,-1.56,39.0,3.75,12.0,28.94,9.983,
01/01/2000,00:00:25.25,-329.10,-3.42,960.94,0.79,-2.13,1.23,39.45,3.75,11.70,28.84,9.983,
01/01/2000,00:00:25.36,-345.21,-1.46,952.64,0.08,-1.78,-4.21,38.25,3.75,11.70,28.75,9.983,
01/01/2000,00:00:25.46,-322.75,-6.84,973.14,-0.99,0.15,-2.06,38.55,2.40,11.85,28.56,9.983,
01/01/2000,00:00:25.56,-325.20,-19.53,964.84,1.56,0.27,-3.84,38.55,3.60,11.40,28.60,9.983,
01/01/2000,00:00:25.66,-328.61,-8.30,964.84,1.79,1.31,1.01,39.0,3.45,12.30,28.75,9.984,
01/01/2000,00:00:25.76,-343.26,-12.21,963.38,-0.75,1.41,-2.16,38.85,3.15,12.15,28.51,9.984,
01/01/2000,00:00:25.86,-337.89,-16.11,963.38,2.95,0.22,2.08,38.55,3.15,12.90,28.56,9.984,
01/01/2000,00:00:25.96,-344.24,-26.37,963.38,-0.85,-0.37,1.76,37.95,4.20,11.70,28.56,9.984,
01/01/2000,00:00:26.06,-334.96,-4.39,979.00,0.31,0.75,-4.33,38.55,4.80,12.60,28.89,9.984,
01/01/2000,00:00:26.16,-333.01,-0.98,961.91,0.39,-1.48,-0.06,38.85,3.60,12.90,28.75,9.984,
01/01/2000,00:00:26.26,-344.73,-15.14,966.80,1.12,-0.97,0.22,38.70,3.75,11.70,28.70,9.984,
01/01/2000,00:00:26.36,-342.29,-0.98,966.80,-0.13,2.74,-0.16,37.35,4.80,11.10,28.84,9.984,
01/01/2000,00:00:26.46,-352.54,-12.70,978.52,1.08,0.47,-0.54,38.55,4.35,11.85,28.60,9.984,
01/01/2000,00:00:26.56,-331.54,-10.25,972.17,2.45,0.24,1.03,37.50,3.45,12.30,28.89,9.984,
01/01/2000,00:00:26.66,-333.98,-13.67,957.03,0.61,-1.51,-0.90,37.95,4.50,11.70,28.56,9.980,
01/01/2000,00:00:26.76,-326.66,-5.86,960.94,-1.42,0.85,-3.27,38.85,3.90,12.90,28.94,9.980,
01/01/2000,00:00:26.86,-340.33,-4.39,962.89,2.05,1.41,2.69,37.50,3.0,11.70,28.84,9.980,
01/01/2000,00:00:26.97,-333.50,-20.02,958.98,0.89,1.46,-0.22,37.80,4.80,11.85,28.60,9.981,
01/01/2000,00:00:27.07,-335.94,-8.30,953.61,-0.14,1.48,-1.04,37.50,3.75,12.75,28.60,9.981,
01/01/2000,00:00:27.17,-330.57,-5.37,966.80,0.63,-1.44,0.42,38.85,3.90,11.85,28.56,9.981,
01/01/2000,00:00:27.27,-332.52,-16.11,962.89,-2.18,1.47,-1.43,37.35,3.60,10.65,28.56,9.981,
01/01/2000,00:00:27.37,-339.36,-11.72,961.43,-0.85,0.15,-2.49,39.30,3.60,11.40,28.89,9.981,
01/01/2000,00:00:27.47,-339.36,-11.72,975.10,-0.79,-0.56,1.74,38.25,3.75,12.30,28.70,9.981,
01/01/2000,00:00:27.57,-328.13,-2.93,963.87,1.02,-0.46,2.81,37.95,3.75,10.95,28.84,9.981,
01/01/2000,00:00:27.67,-342.29,-10.25,968.26,-0.53,-0.46,2.75,37.50,4.95,9.45,28.75,9.981,
01/01/2000,00:00:27.77,-332.52,-12.21,961.91,-0.94,1.47,-3.53,38.55,3.90,11.40,28.75,9.981,
01/01/2000,00:00:27.87,-339.84,-15.63,960.94,0.18,-1.15,1.66,38.10,3.60,11.40,28.84,9.981,
01/01/2000,00:00:27.97,-336.43,-6.35,970.21,1.37,-3.02,0.37,37.50,3.75,10.95,28.89,9.981,
01/01/2000,00:00:28.07,-335.45,-6.84,972.66,0.05,-1.75,-0.38,37.95,3.45,11.70,28.89,9.981,
01/01/2000,00:00:28.17,-337.40,-11.23,967.29,-0.02,-1.68,3.63,39.60,3.15,11.10,28.84,9.981,
01/01/2000,00:00:28.27,-318.36,-8.30,968.26,0.31,0.50,1.29,40.05,2.85,11.10,28.89,9.978,
01/01/2000,00:00:28.37,-338.38,-10.74,961.43,1.18,-1.11,1.82,38.70,3.75,11.70,28.75,9.978,
01/01/2000,00:00:28.47,-347.17,-21.97,966.31,-1.75,0.46,0.14,38.55,3.60,11.10,28.89,9.978,
01/01/2000,00:00:28.57,-341.31,-10.25,969.24,2.29,-1.26,1.99,38.55,3.60,11.85,28.70,9.978,
01/01/2000,00:00:28.68,-335.45,-12.70,966.80,0.04,0.18,0.53,38.10,3.15,10.65,28.60,9.978,
01/01/2000,00:00:28.78,-345.70,-0.49,973.63,1.35,-0.45,-0.63,37.95,4.50,11.70,28.84,9.978,
01/01/2000,00:00:28.88,-325.68,-0.98,974.12,1.63,0.26,-1.31,38.10,3.60,11.40,28.84,9.978,
01/01/2000,00:00:28.98,-340.82,-12.70,965.82,1.63,-2.35,-0.74,38.70,3.0,12.0,28.84,9.978,
01/01/2000,00:00:29.08,-336.43,-16.11,961.43,-1.33,0.55,-0.73,39.45,2.55,11.25,28.75,9.978,
01/01/2000,00:00:29.18,-346.68,-8.79,954.59,0.37,-0.37,-2.34,37.95,2.25,12.75,28.89,9.978,
01/01/2000,00:00:29.28,-338.38,-19.53,955.57,0.69,-0.26,1.18,37.35,3.90,13.20,28.84,9.979,
01/01/2000,00:00:29.38,-331.05,-8.79,958.50,-1.07,0.35,2.90,38.70,3.75,12.0,29.04,9.979,
01/01/2000,00:00:29.48,-335.45,-13.18,968.26,-0.14,-1.40,-1.27,38.55,3.90,12.60,28.70,9.979,
01/01/2000,00:00:29.58,-344.24,-11.72,964.84,2.17,-1.55,1.30,37.95,4.50,11.25,28.94,9.979,
01/01/2000,00:00:29.68,-331.54,-10.25,965.82,1.81,-0.56,2.74,39.60,2.85,11.10,28.89,9.979,
01/01/2000,00:00:29.78,-328.61,-11.72,959.47,0.44,0.29,0.31,38.55,2.85,12.60,28.94,9.979,
01/01/2000,00:00:29.88,-334.96,-25.88,962.89,0.09,-1.42,0.18,39.45,3.45,10.50,28.70,9.979,
01/01/2000,00:00:29.98,-338.38,-0.49,962.89,0.35,0.87,0.50,37.35,5.10,11.40,28.89,9.976,
01/01/2000,00:00:30.08,-337.89,-6.84,963.87,3.27,-1.42,1.56,38.10,4.35,11.85,28.89,9.976,
01/01/2000,00:00:30.18,-337.40,-9.28,968.26,0.27,-0.07,-0.60,37.95,3.0,12.30,28.89,9.976,
01/01/2000,00:00:30.29,-338.38,1.46,974.12,0.62,-0.47,3.53,38.55,3.90,11.10,28.84,9.976,
01/01/2000,00:00:30.39,-340.33,-7.81,967.77,0.06,0.37,-0.24,39.0,3.45,12.0,29.04,9.976,
01/01/2000,00:00:30.49,-330.57,-16.11,964.84,-2.42,0.62,0.40,38.70,5.25,12.75,29.04,9.976,
01/01/2000,00:00:30.59,-338.87,-7.32,959.47,2.66,1.24,-0.77,39.45,4.20,12.0,28.89,9.976,
01/01/2000,00:00:30.69,-342.77,-6.84,961.91,0.15,-1.78,1.50,38.55,2.85,10.05,28.56,9.976,
01/01/2000,00:00:30.79,-350.59,-10.74,962.89,-1.12,2.07,0.65,39.30,2.85,10.65,28.84,9.976,
01/01/2000,00:00:30.89,-332.03,-15.14,972.17,-0.67,0.15,-1.74,38.55,3.90,11.85,28.84,9.976,
01/01/2000,00:00:30.99,-336.91,-5.86,956.54,1.22,-0.92,1.71,38.25,3.45,12.30,29.13,9.976,
01/01/2000,00:00:31.09,-332.52,-8.30,958.50,1.21,-1.64,-0.37,38.25,3.75,12.75,28.84,9.976,
01/01/2000,00:00:31.19,-342.77,-17.58,958.50,2.27,0.28,1.44,38.55,4.80,10.65,28.84,9.977,
01/01/2000,00:00:31.29,-326.66,-18.55,963.87,2.46,-0.67,-0.33,38.10,3.90,11.85,29.04,9.977,
01/01/2000,00:00:31.39,-344.24,-17.09,960.45,1.40,0.66,2.33,38.85,4.35,11.40,28.84,9.977,
01/01/2000,00:00:31.49,-340.33,-4.39,958.50,0.53,-0.66,-1.68,38.85,3.15,11.10,28.94,9.977,
01/01/2000,00:00:31.59,-337.89,-15.63,961.91,-1.98,0.72,0.46,38.25,2.55,10.95,28.60,9.974,
01/01/2000,00:00:31.69,-337.40,-8.30,966.80,-0.22,1.64,-2.95,38.25,3.0,12.30,28.75,9.974,
01/01/2000,00:00:31.79,-332.03,-11.72,960.94,0.82,0.48,2.23,38.55,5.10,11.40,28.70,9.974,
01/01/2000,00:00:31.90,-342.29,-21.48,961.43,0.08,0.74,-1.63,39.0,3.45,11.70,28.89,9.974,
01/01/2000,00:00:32.00,-330.57,-12.21,967.77,-3.02,1.45,-1.08,38.85,3.90,12.15,28.84,9.974,
01/01/2000,00:00:32.10,-333.01,-4.88,958.50,-2.24,0.56,-0.43,39.45,3.75,11.25,29.04,9.974,
01/01/2000,00:00:32.20,-347.17,-4.39,965.82,-2.47,0.86,-1.51,39.45,3.0,11.70,28.84,9.974,
01/01/2000,00:00:32.30,-336.91,-3.42,959.96,-1.44,1.99,1.34,39.0,2.25,11.70,28.84,9.974,
01/01/2000,00:00:32.40,-332.03,-2.44,968.26,-0.83,0.48,-0.93,38.10,3.15,11.40,28.84,9.974,
01/01/2000,00:00:32.50,-332.52,-8.30,963.38,-1.20,-0.55,-1.33,38.25,4.50,10.95,28.84,9.974,
01/01/2000,00:00:32.60,-315.92,-18.55,961.43,0.05,-2.41,1.79,39.30,3.90,11.85,28.89,9.974,
01/01/2000,00:00:32.70,-336.43,-15.63,957.03,-0.61,-1.50,0.82,39.0,3.0,11.25,28.84,9.975,
01/01/2000,00:00:32.80,-334.96,-17.09,959.96,-0.62,-1.13,-0.37,38.25,3.75,10.95,28.75,9.975,
01/01/2000,00:00:32.90,-328.61,-7.81,963.38,-1.37,0.32,-1.82,38.55,3.60,12.90,29.04,9.975,
01/01/2000,00:00:33.00,-345.70,-11.72,965.82,-0.52,-1.37,0.55,39.45,3.45,10.50,28.84,9.975,
01/01/2000,00:00:33.10,-336.43,-9.28,950.68,-0.34,0.79,-0.38,38.10,3.15,11.40,28.84,9.975,
01/01/2000,00:00:33.20,-337.40,-5.86,958.01,1.19,-2.83,1.06,39.45,3.45,10.95,28.94,9.972,
01/01/2000,00:00:33.30,-327.64,-1.95,958.50,-0.53,-1.26,2.53,39.60,4.35,11.85,29.04,9.972,
01/01/2000,00:00:33.40,-339.84,-20.51,966.31,1.05,-0.24,2.49,39.45,2.55,12.0,28.89,9.972,
01/01/2000,00:00:33.50,-332.52,-16.60,967.77,-0.83,0.24,-2.32,39.75,3.0,11.25,28.75,9.972,
01/01/2000,00:00:33.60,-328.13,-20.02,959.47,1.38,-2.09,-0.04,37.35,2.10,11.85,28.89,9.972,
01/01/2000,00:00:33.71,-330.08,-18.55,962.40,-0.24,-0.48,0.90,38.55,2.85,10.65,29.13,9.972,
01/01/2000,00:00:33.81,-328.13,-14.16,972.17,1.16,1.08,-1.34,38.85,2.85,11.40,28.94,9.972,
01/01/2000,00:00:33.91,-336.91,-6.35,957.03,-0.01,-1.05,1.23,38.55,2.40,11.40,28.60,9.972,
01/01/2000,00:00:34.01,-331.54,-15.63,978.52,1.98,-0.96,1.66,39.0,3.0,12.0,29.04,9.972,
01/01/2000,00:00:34.11,-339.36,-21.00,958.50,-0.92,-2.93,0.28,38.70,2.55,10.95,28.94,9.973,
01/01/2000,00:00:34.21,-323.73,-15.63,965.82,-0.32,-0.16,4.30,38.10,2.85,11.40,28.60,9.973,
01/01/2000,00:00:34.31,-325.68,-6.84,969.24,-0.85,-2.80,2.50,38.85,4.35,12.15,28.94,9.973,
01/01/2000,00:00:34.41,-323.24,-1.46,967.77,-0.25,1.83,-2.29,39.0,3.0,11.25,29.04,9.973,
01/01/2000,00:00:34.51,-329.59,-17.09,965.33,0.30,-1.16,1.39,37.80,5.55,11.85,28.84,9.973,
01/01/2000,00:00:34.61,-334.96,-9.28,964.84,0.79,-1.47,-1.04,37.05,2.85,12.15,28.84,9.973,
01/01/2000,00:00:34.71,-345.70,-3.42,949.71,-0.50,-0.35,-0.42,39.45,3.0,12.0,28.84,9.973,
01/01/2000,00:00:34.81,-338.38,-20.51,959.96,1.07,-1.04,-0.10,38.10,4.80,12.15,28.89,9.973,
01/01/2000,00:00:34.91,-337.40,-19.04,955.08,0.11,-2.26,0.85,38.85,5.10,12.60,28.84,9.970,
01/01/2000,00:00:35.01,-335.45,-5.37,960.94,0.02,-1.12,-0.63,37.80,4.35,12.60,29.04,9.970,
01/01/2000,00:00:35.11,-332.03,-16.11,968.26,-0.73,1.88,-3.14,38.25,4.20,10.95,28.84,9.970,
01/01/2000,00:00:35.21,-369.63,-5.37,982.42,-1.03,0.54,-1.31,39.30,3.60,10.65,29.08,9.971,
01/01/2000,00:00:35.32,-330.57,-5.37,961.43,-1.35,0.63,-1.09,37.35,5.10,11.40,28.75,9.971,
01/01/2000,00:00:35.42,-336.43,2.93,980.96,-0.73,2.27,1.40,37.05,2.85,11.40,28.75,9.971,
01/01/2000,00:00:35.52,-339.84,-5.86,965.82,-0.29,-0.34,0.73,39.0,2.55,10.95,28.70,9.971,
01/01/2000,00:00:35.62,-348.14,-17.58,963.38,-0.41,0.37,-0.61,39.30,4.80,11.40,28.94,9.971,
01/01/2000,00:00:35.72,-337.89,-22.46,963.38,0.60,-0.20,-2.48,37.50,3.0,10.95,28.84,9.971,
01/01/2000,00:00:35.82,-349.12,-12.70,971.19,0.25,-1.31,-1.69,38.70,2.55,10.95,28.70,9.971,
01/01/2000,00:00:35.92,-341.80,-1.95,962.89,-1.30,2.24,0.60,38.55,2.40,11.40,29.04,9.971,
01/01/2000,00:00:36.02,-335.94,-5.37,962.40,-1.08,-0.24,-1.33,38.55,3.60,12.15,29.08,9.971,
01/01/2000,00:00:36.12,-328.13,-23.93,958.50,-0.06,-1.50,1.29,40.35,3.60,13.20,29.04,9.971,
01/01/2000,00:00:36.22,-324.71,-8.79,964.84,3.11,-0.11,0.67,37.80,3.15,11.40,28.84,9.971,
01/01/2000,00:00:36.32,-336.43,-15.14,953.61,-0.05,1.39,-0.89,38.55,4.35,11.40,29.08,9.971,
01/01/2000,00:00:36.42,-343.26,3.91,964.36,2.39,-0.23,1.01,39.0,3.45,12.0,28.89,9.972,
01/01/2000,00:00:36.52,-345.70,-17.58,976.56,-1.14,0.90,-2.23,39.30,3.15,11.40,28.89,9.969,
01/01/2000,00:00:36.62,-345.70,-21.97,960.45,-0.98,0.85,-1.36,38.55,3.90,13.20,29.04,9.969,
01/01/2000,00:00:36.72,-341.31,-10.25,959.47,-1.95,-0.26,0.07,36.75,3.45,11.70,28.84,9.969,
01/01/2000,00:00:36.82,-340.33,2.44,968.75,-0.03,-1.25,4.01,37.80,2.40,11.10,28.75,9.969,
01/01/2000,00:00:36.93,-335.94,-12.70,973.14,-0.11,-1.16,0.18,37.95,3.75,12.0,28.84,9.969,
01/01/2000,00:00:37.03,-336.91,-11.72,969.24,-0.20,-0.75,2.58,37.80,2.85,12.60,29.04,9.969,
01/01/2000,00:00:37.13,-333.01,-9.28,955.57,2.08,-0.36,1.86,37.95,2.55,11.70,28.84,9.969,
01/01/2000,00:00:37.23,-333.50,-13.67,950.20,-0.56,-1.66,1.05,38.70,2.55,12.30,29.08,9.969,
01/01/2000,00:00:37.33,-328.61,-7.81,966.80,0.97,1.42,1.16,38.25,2.25,11.70,28.94,9.969,
01/01/2000,00:00:37.43,-333.01,-13.18,963.87,0.82,-1.12,0.73,38.55,3.90,12.90,28.75,9.970,
01/01/2000,00:00:37.53,-326.66,-11.23,969.73,-1.28,-2.04,-1.56,39.30,3.90,12.15,28.84,9.970,
01/01/2000,00:00:37.63,-340.82,-21.48,965.82,0.59,-0.27,2.03,38.10,5.10,12.15,29.08,9.970,
01/01/2000,00:00:37.73,-351.07,-5.37,957.03,1.27,-0.56,2.08,39.60,3.15,12.60,28.94,9.970,
01/01/2000,00:00:37.83,-338.38,-9.77,970.70,0.15,-1.55,-2.15,39.60,2.85,11.10,28.75,9.970,
01/01/2000,00:00:37.93,-335.45,-11.72,960.45,0.15,1.95,-0.50,38.55,2.85,12.90,28.89,9.970,
01/01/2000,00:00:38.03,-346.19,-9.28,960.94,0.29,0.21,0.74,38.55,3.60,11.85,28.75,9.970,
01/01/2000,00:00:38.13,-336.43,-26.37,963.38,-0.42,0.15,-1.22,37.50,3.45,12.30,28.84,9.967,
01/01/2000,00:00:38.23,-342.29,-12.70,971.68,-1.76,0.01,-1.02,37.80,2.85,11.10,29.08,9.967,
01/01/2000,00:00:38.33,-331.05,-12.70,959.47,1.44,-0.56,1.66,36.60,3.15,10.35,29.13,9.968,
01/01/2000,00:00:38.43,-331.54,-12.21,967.29,-2.57,-1.66,-1.31,39.0,4.20,13.05,29.04,9.968,
01/01/2000,00:00:38.54,-331.05,-9.28,970.70,-1.58,0.72,-0.02,37.80,3.90,11.40,29.08,9.968,
01/01/2000,00:00:38.64,-336.43,-4.39,962.40,-0.41,-1.56,0.67,38.10,3.15,11.85,29.04,9.968,
01/01/2000,00:00:38.74,-335.45,-8.30,965.33,0.08,0.88,-2.64,39.45,2.55,10.95,28.94,9.968,
01/01/2000,00:00:38.84,-338.87,-19.53,960.94,-0.21,0.03,-2.01,38.25,4.20,11.25,28.75,9.968,
01/01/2000,00:00:38.94,-334.96,-12.70,968.26,-0.63,-0.80,-1.15,39.0,3.75,10.95,29.04,9.968,
01/01/2000,00:00:39.04,-336.43,-5.86,971.68,1.70,-0.93,-0.11,37.80,3.15,13.95,28.89,9.968,
01/01/2000,00:00:39.14,-340.33,-16.11,961.91,-0.77,0.34,0.02,37.35,3.60,12.15,28.89,9.968,
01/01/2000,00:00:39.24,-329.59,-17.09,964.84,1.71,-1.28,-0.36,38.25,2.55,10.95,29.04,9.968,
01/01/2000,00:00:39.34,-356.45,-12.70,967.77,-1.73,3.54,-0.93,38.25,2.25,11.25,29.04,9.968,
01/01/2000,00:00:39.44,-328.13,-4.39,966.80,-0.21,-0.15,-1.26,37.50,2.55,11.70,28.89,9.969,
01/01/2000,00:00:39.54,-328.13,-5.37,966.31,0.93,1.11,-1.63,38.25,2.55,10.95,28.89,9.969,
01/01/2000,00:00:39.64,-348.63,-17.09,955.57,-0.82,-3.02,0.16,38.10,2.85,12.60,29.13,9.969,
01/01/2000,00:00:39.74,-345.70,-9.77,966.80,-0.47,-2.40,-0.55,39.30,3.15,12.15,29.04,9.969,
01/01/2000,00:00:39.84,-331.54,-9.28,969.24,2.37,-0.68,1.02,37.95,4.95,13.50,28.94,9.966,
01/01/2000,00:00:39.94,-341.80,-16.11,965.33,0.92,2.10,-2.37,37.20,3.0,10.95,28.94,9.966,
01/01/2000,00:00:40.04,-332.03,-11.72,961.91,-2.58,0.29,-1.96,38.85,2.40,11.40,28.70,9.966,
01/01/2000,00:00:40.15,-341.80,-22.46,955.08,0.63,-0.79,2.85,37.80,2.40,12.15,29.04,9.967,
01/01/2000,00:00:40.25,-332.03,-3.91,951.66,1.60,-0.45,0.08,38.70,3.75,12.0,28.94,9.967,
01/01/2000,00:00:40.35,-320.31,-14.16,969.73,1.38,0.42,1.15,39.30,5.10,11.10,29.04,9.967,
01/01/2000,00:00:40.45,-330.08,-9.77,958.98,-0.50,1.46,0.98,38.55,3.60,11.85,28.84,9.967,
01/01/2000,00:00:40.55,-374.02,-7.32,1003.91,-1.40,1.24,0.16,38.70,2.25,10.95,29.08,9.967,
01/01/2000,00:00:40.65,-347.17,-9.28,978.03,1.34,0.05,1.49,38.55,2.10,11.70,28.94,9.967,
01/01/2000,00:00:40.75,-337.40,-1.95,960.94,2.0,-1.11,1.22,39.60,3.90,11.85,29.08,9.967,
01/01/2000,00:00:40.85,-341.31,-4.88,965.82,1.22,-0.01,1.89,39.0,3.45,10.50,29.04,9.967,
01/01/2000,00:00:40.95,-339.36,-2.93,965.33,-0.21,-0.48,1.82,39.60,3.15,11.10,28.94,9.967,
01/01/2000,00:00:41.05,-341.80,-6.35,958.98,1.20,-1.63,3.03,38.25,3.0,11.70,28.84,9.967,
01/01/2000,00:00:41.15,-330.57,-19.04,958.50,-0.72,-0.45,-1.50,37.95,4.95,13.80,28.84,9.967,
01/01/2000,00:00:41.25,-331.05,-0.49,973.63,0.49,-2.85,2.29,36.60,3.90,12.15,28.75,9.967,
01/01/2000,00:00:41.35,-339.36,-3.91,965.33,1.32,0.95,0.58,36.75,3.75,10.95,28.94,9.968,
01/01/2000,00:00:41.45,-345.70,-17.58,966.31,0.23,0.28,1.21,39.30,2.85,12.15,28.94,9.965,
01/01/2000,00:00:41.55,-331.05,-14.65,969.73,0.41,-1.60,-0.40,39.30,2.85,11.40,29.04,9.965,
01/01/2000,00:00:41.65,-330.08,2.44,969.24,-0.37,-0.44,-3.26,38.85,3.60,10.65,29.04,9.965,
01/01/2000,00:00:41.75,-336.43,-21.97,960.45,-1.66,1.68,-0.42,39.30,4.35,10.65,28.84,9.965,
01/01/2000,00:00:41.86,-334.47,-13.67,965.33,1.18,-1.51,1.02,38.70,3.75,12.0,28.94,9.965,
01/01/2000,00:00:41.96,-355.47,-17.58,970.70,1.24,0.26,1.32,37.50,2.25,12.0,29.13,9.966,
01/01/2000,00:00:42.06,-343.26,-7.81,957.03,0.82,-1.44,0.24,37.35,3.60,12.15,29.08,9.966,
01/01/2000,00:00:42.16,-321.29,-12.21,962.40,0.43,0.91,1.22,38.55,2.85,11.85,29.13,9.966,
01/01/2000,00:00:42.26,-340.82,-13.18,969.73,-0.42,-0.11,-0.25,37.95,3.45,10.95,28.70,9.966,
01/01/2000,00:00:42.36,-338.38,-9.28,969.24,1.66,0.04,1.66,38.85,3.15,11.40,28.75,9.966,
01/01/2000,00:00:42.46,-352.05,-21.00,966.80,-0.08,-0.90,1.97,39.0,4.20,11.70,29.04,9.966,
01/01/2000,00:00:42.56,-333.98,-22.95,967.77,-1.10,-1.63,-0.25,38.85,3.60,13.65,29.08,9.966,
01/01/2000,00:00:42.66,-344.24,-11.23,967.77,0.13,-0.21,0.51,38.10,3.15,12.15,28.94,9.966,
01/01/2000,00:00:42.76,-326.66,-8.79,957.52,-2.72,-0.82,-0.06,39.30,3.60,11.85,29.23,9.966,
01/01/2000,00:00:42.86,-340.82,-12.21,975.59,0.55,1.85,0.69,38.55,3.15,12.90,29.04,9.966,
01/01/2000,00:00:42.96,-326.17,-7.81,966.31,0.86,-2.53,-0.69,37.80,3.15,11.85,29.13,9.966,
01/01/2000,00:00:43.06,-330.08,-1.95,964.36,-1.02,0.12,-0.59,38.85,3.90,12.15,28.75,9.964,
01/01/2000,00:00:43.16,-327.64,-16.60,966.31,-0.27,-2.32,3.15,39.60,2.40,12.15,29.08,9.964,
01/01/2000,00:00:43.26,-343.26,-14.16,952.64,-1.58,1.20,0.31,39.60,4.35,12.60,28.94,9.964,
01/01/2000,00:00:43.36,-338.38,-5.37,962.89,-3.52,-0.40,-4.03,39.60,2.40,11.10,28.89,9.964,
01/01/2000,00:00:43.47,-337.40,-15.63,965.82,-0.51,-0.79,-0.20,38.70,3.75,12.0,28.94,9.964,
01/01/2000,00:00:43.57,-336.43,-1.46,965.33,0.57,-1.97,1.61,38.85,3.90,11.85,28.94,9.964,
01/01/2000,00:00:43.67,-343.26,0.49,958.01,-0.65,-0.89,0.97,39.45,4.50,13.05,28.94,9.965,
01/01/2000,00:00:43.77,-336.91,-10.74,960.45,-0.06,-0.62,1.25,38.25,4.50,10.50,28.89,9.965,
01/01/2000,00:00:43.87,-335.94,-18.07,962.40,-1.50,0.58,-1.98,38.85,2.85,10.65,28.89,9.965,
01/01/2000,00:00:43.97,-334.47,-8.79,961.43,-2.05,0.42,-4.47,37.95,4.95,12.0,28.94,9.965,
01/01/2000,00:00:44.07,-334.47,-16.60,958.01,1.71,-0.66,-1.86,37.95,3.0,11.25,29.13,9.965,
01/01/2000,00:00:44.17,-340.82,-10.25,957.03,-1.70,0.42,-2.92,38.10,3.15,13.65,28.84,9.965,
01/01/2000,00:00:44.27,-331.05,-5.86,971.19,-0.11,-0.72,0.63,39.30,2.85,13.20,29.08,9.965,
01/01/2000,00:00:44.37,-342.77,-5.37,967.29,0.78,-0.24,-0.38,37.50,3.45,13.50,29.13,9.965,
01/01/2000,00:00:44.47,-347.66,-18.55,962.40,-1.27,0.81,-0.12,37.50,3.45,11.25,28.70,9.965,
01/01/2000,00:00:44.57,-325.68,-12.21,960.94,1.15,1.26,-1.82,38.85,3.90,10.65,28.94,9.965,
01/01/2000,00:00:44.67,-336.91,-13.18,954.59,0.53,-0.52,-1.68,38.55,3.90,12.60,29.04,9.963,
01/01/2000,00:00:44.77,-333.50,-4.39,954.59,0.08,1.25,-0.50,38.10,3.90,12.60,29.08,9.963,
01/01/2000,00:00:44.87,-331.05,-1.95,955.57,-0.54,-0.86,3.85,37.50,3.75,11.70,28.89,9.963,
01/01/2000,00:00:44.97,-349.12,-14.65,967.77,-0.17,1.03,0.35,39.45,3.45,11.70,29.08,9.963,
01/01/2000,00:00:45.08,-345.70,-15.63,966.80,1.73,0.24,-0.43,37.50,4.20,11.70,29.04,9.963,
01/01/2000,00:00:45.18,-344.24,-16.60,967.77,-0.37,-0.87,-3.41,38.25,2.25,12.0,29.08,9.964,
01/01/2000,00:00:45.28,-336.91,-9.77,967.29,1.01,0.90,-0.33,37.80,2.40,10.35,28.89,9.964,
01/01/2000,00:00:45.38,-342.29,-12.70,961.43,-0.05,-1.73,0.95,37.80,3.90,11.10,28.89,9.964,
01/01/2000,00:00:45.48,-327.15,-11.72,975.59,-1.38,0.50,0.63,37.20,3.0,12.30,29.13,9.964,
01/01/2000,00:00:45.58,-343.26,-7.32,969.24,0.37,1.59,-2.07,37.80,3.15,11.10,29.04,9.964,
01/01/2000,00:00:45.68,-331.54,-11.23,965.82,-1.05,0.01,-0.50,39.0,3.75,11.25,29.04,9.964,
01/01/2000,00:00:45.78,-336.43,-19.04,959.96,0.85,0.21,-1.21,37.20,3.75,10.95,29.04,9.964,
01/01/2000,00:00:45.88,-335.45,-7.81,962.89,1.07,0.97,0.66,38.55,3.15,12.15,29.08,9.964,
01/01/2000,00:00:45.98,-343.75,-10.74,967.77,0.17,-0.40,1.52,37.35,2.85,12.60,28.70,9.964,
01/01/2000,00:00:46.08,-348.63,-13.18,951.66,-1.60,-0.67,0.45,38.25,3.45,11.25,28.75,9.964,
01/01/2000,00:00:46.18,-340.82,-32.71,939.94,-0.73,1.14,-0.26,37.80,2.85,10.35,29.23,9.964,
01/01/2000,00:00:46.28,-345.21,0.0,968.26,-0.78,0.68,-0.44,38.10,3.60,11.10,29.13,9.962,
01/01/2000,00:00:46.38,-330.08,-0.98,958.01,0.06,-0.88,3.36,37.95,3.45,11.25,29.13,9.962,
01/01/2000,00:00:46.48,-333.98,-15.14,952.64,-1.53,0.44,-1.05,38.85,5.55,12.15,29.28,9.962,
01/01/2000,00:00:46.58,-330.57,-0.49,960.45,0.78,0.59,1.73,39.45,4.50,10.50,29.04,9.962,
01/01/2000,00:00:46.69,-330.08,-18.07,955.57,-1.73,1.92,-2.51,38.25,1.80,10.95,29.13,9.963,
01/01/2000,00:00:46.79,-339.36,-6.84,975.59,-0.97,0.93,-1.58,39.30,4.35,10.65,29.13,9.963,
01/01/2000,00:00:46.89,-338.38,-7.32,966.31,1.02,0.30,0.83,38.25,3.45,12.30,29.13,9.963,
01/01/2000,00:00:46.99,-337.89,-27.83,969.24,-1.72,-0.66,-0.94,38.10,3.90,12.90,29.13,9.963,
01/01/2000,00:00:47.09,-336.91,-0.98,968.26,-0.05,-1.21,1.61,38.85,3.60,10.65,28.89,9.963,
01/01/2000,00:00:47.19,-344.24,-21.00,959.47,-1.44,0.44,1.60,39.30,3.90,11.40,28.89,9.963,
01/01/2000,00:00:47.29,-337.89,-9.77,964.36,-0.77,-1.24,1.56,38.70,3.45,12.0,29.04,9.963,
01/01/2000,00:00:47.39,-340.33,-21.48,961.43,-0.19,0.76,0.12,37.95,4.50,12.30,29.13,9.963,
01/01/2000,00:00:47.49,-336.43,-13.67,954.10,2.08,-0.60,0.34,37.95,5.25,10.95,29.04,9.963,
01/01/2000,00:00:47.59,-325.20,-4.88,972.66,-0.60,-1.02,-0.59,38.55,1.65,11.40,29.28,9.963,
01/01/2000,00:00:47.69,-334.47,-10.74,970.21,1.77,-0.48,-0.42,37.95,3.45,10.50,29.08,9.963,
01/01/2000,00:00:47.79,-319.34,-19.53,962.40,-0.10,-3.28,1.05,37.95,4.50,11.25,29.04,9.963,
01/01/2000,00:00:47.89,-333.01,2.93,966.80,0.65,-0.96,1.47,41.10,3.15,12.60,28.89,9.961,
01/01/2000,00:00:47.99,-329.59,-11.72,969.24,-1.24,-0.68,-0.31,37.95,4.20,10.50,29.23,9.961,
01/01/2000,00:00:48.09,-343.26,-7.32,954.10,1.31,-1.45,1.33,38.85,2.85,11.40,29.08,9.962,
01/01/2000,00:00:48.19,-338.87,-19.53,960.45,0.18,-1.74,1.75,38.25,4.50,11.70,28.84,9.962,
01/01/2000,00:00:48.30,-330.08,-4.88,972.66,-0.75,-1.0,-0.31,37.20,3.75,11.25,29.04,9.962,
01/01/2000,00:00:48.40,-328.61,-5.86,957.52,2.61,-1.44,1.64,37.20,3.45,12.0,29.23,9.962,
01/01/2000,00:00:48.50,-335.45,-11.23,951.17,0.50,-0.73,0.72,39.0,3.45,10.95,28.84,9.962,
01/01/2000,00:00:48.60,-340.33,-9.77,963.87,2.24,-0.85,-0.28,38.25,2.25,11.70,29.08,9.962,
01/01/2000,00:00:48.70,-335.94,-10.74,964.36,-1.62,-1.75,-1.15,38.85,2.40,10.65,29.04,9.962,
01/01/2000,00:00:48.80,-339.36,-0.98,960.94,-0.02,-0.37,-1.56,38.85,3.60,11.10,29.13,9.962,
01/01/2000,00:00:48.90,-336.91,-1.95,956.54,1.21,-0.55,-0.71,38.55,3.90,12.15,29.23,9.962,
01/01/2000,00:00:49.00,-329.59,-1.95,973.14,0.77,0.86,1.67,37.80,2.85,12.15,29.04,9.962,
01/01/2000,00:00:49.10,-337.89,-4.39,962.40,1.24,1.02,0.70,37.05,3.90,11.40,29.28,9.962,
01/01/2000,00:00:49.20,-331.54,-3.91,965.33,0.66,-2.12,4.22,36.45,4.20,11.25,29.13,9.962,
01/01/2000,00:00:49.30,-320.80,-8.30,962.89,-0.91,0.82,-0.21,38.10,3.60,13.20,29.28,9.962,
01/01/2000,00:00:49.40,-353.52,-11.23,950.20,1.28,-1.86,-0.56,37.50,4.20,12.30,29.04,9.963,
01/01/2000,00:00:49.50,-343.26,-11.72,965.33,-0.79,-1.37,1.12,38.10,3.60,11.85,29.13,9.963,
01/01/2000,00:00:49.60,-336.43,-12.21,960.45,-0.40,-4.06,1.18,39.60,5.10,12.60,29.23,9.961,
01/01/2000,00:00:49.70,-337.40,-12.70,975.59,0.83,-0.52,0.21,39.30,3.60,11.85,29.04,9.961,
01/01/2000,00:00:49.80,-348.14,0.0,980.47,1.46,-1.33,2.38,38.85,5.10,12.90,29.13,9.961,
01/01/2000,00:00:49.91,-336.91,-10.25,939.45,0.53,0.79,0.43,37.20,4.50,11.70,29.13,9.961,
01/01/2000,00:00:50.01,-331.54,-25.88,961.43,-0.24,-1.46,0.98,38.10,3.90,11.40,29.28,9.961,
01/01/2000,00:00:50.11,-340.82,-16.11,967.29,1.25,-0.27,3.08,38.70,3.45,12.75,28.75,9.961,
01/01/2000,00:00:50.21,-343.26,-21.97,967.77,3.03,-0.92,4.16,38.25,2.25,10.95,29.13,9.961,
01/01/2000,00:00:50.31,-337.40,-8.79,953.13,2.11,-2.07,-0.27,38.70,3.0,12.75,28.94,9.961,
01/01/2000,00:00:50.41,-347.17,-13.67,959.47,-0.70,-1.51,2.28,37.05,2.85,12.15,29.08,9.961,
01/01/2000,00:00:50.51,-333.50,-7.81,960.94,0.34,0.14,0.22,37.95,4.20,12.0,29.08,9.961,
01/01/2000,00:00:50.61,-339.36,-16.11,969.73,-0.85,-1.35,-1.99,37.50,2.55,12.0,29.04,9.961,
01/01/2000,00:00:50.71,-331.05,-11.23,958.01,0.92,-0.11,0.84,37.50,3.45,12.0,29.13,9.962,
01/01/2000,00:00:50.81,-334.96,-12.21,963.38,-0.66,-0.34,4.12,39.60,2.85,11.40,29.23,9.962,
01/01/2000,00:00:50.91,-334.96,-6.35,964.84,1.15,-0.36,2.58,37.50,4.20,11.70,29.04,9.962,
01/01/2000,00:00:51.01,-334.47,-10.25,969.73,-1.49,-0.03,1.98,38.55,3.90,12.15,29.13,9.962,
01/01/2000,00:00:51.11,-331.05,-8.30,960.45,-1.23,-0.82,1.12,37.95,4.50,11.25,29.13,9.962,
01/01/2000,00:00:51.21,-344.73,-9.77,970.21,0.20,-2.16,1.85,37.50,4.20,11.70,28.94,9.960,
01/01/2000,00:00:51.31,-333.01,-9.28,962.40,-0.82,2.69,-0.07,38.10,2.85,13.20,29.23,9.960,
01/01/2000,00:00:51.41,-327.64,-5.37,946.29,1.21,-2.15,-0.54,38.55,2.85,12.60,29.13,9.960,
01/01/2000,00:00:51.52,-337.40,-14.16,963.87,0.88,-0.50,1.09,37.20,3.45,12.0,29.04,9.960,
01/01/2000,00:00:51.62,-334.47,-3.91,976.56,0.20,0.85,-1.65,38.70,3.0,10.50,29.23,9.960,
01/01/2000,00:00:51.72,-333.98,-7.81,960.94,-1.03,0.07,1.51,37.95,3.75,12.30,29.13,9.960,
01/01/2000,00:00:51.82,-335.94,-10.25,961.91,0.37,-1.37,1.40,38.55,3.60,11.10,29.04,9.960,
01/01/2000,00:00:51.92,-327.15,-8.79,964.36,-0.03,-2.0,0.27,38.70,2.55,11.70,29.28,9.960,
01/01/2000,00:00:52.02,-338.38,-4.39,954.10,-0.94,-1.67,1.40,37.95,3.75,12.30,29.13,9.961,
01/01/2000,00:00:52.12,-336.91,-12.70,964.36,-2.40,-0.12,-0.84,37.35,3.60,12.15,29.08,9.961,
01/01/2000,00:00:52.22,-334.47,0.49,959.96,1.40,-1.98,-0.68,39.60,3.60,12.15,29.37,9.961,
01/01/2000,00:00:52.32,-335.94,-10.74,961.43,-1.82,0.56,-2.36,38.25,2.55,11.70,29.04,9.961,
01/01/2000,00:00:52.42,-332.52,-23.44,968.75,0.89,1.34,1.27,37.35,3.15,11.85,29.23,9.961,
