rtcDate,rtcTime,aX,aY,aZ,gX,gY,gZ,mX,mY,mZ,imu_degC,output_Hz,
01/01/2000,00:00:01.32,-1036.13,-138.67,-24.90,33.96,-2.50,17.41,24.45,36.60,-18.75,30.67,100.0,
01/01/2000,00:00:01.42,-1043.46,-125.0,-60.55,24.71,-7.63,16.88,25.95,36.60,-18.75,30.33,20.0,
01/01/2000,00:00:01.52,-1009.77,-46.39,67.38,-13.04,11.48,20.89,24.45,38.55,-18.0,30.43,14.286,
01/01/2000,00:00:01.63,-1007.32,-82.03,-47.36,-0.48,-0.39,-4.46,25.05,39.15,-19.65,30.43,12.903,
01/01/2000,00:00:01.72,-1105.47,-35.16,-103.03,1.51,-93.35,-45.14,26.25,37.95,-18.60,30.14,12.500,
01/01/2000,00:00:01.82,-895.51,-154.30,330.57,11.30,-208.94,-100.88,30.0,34.50,-5.40,30.52,11.765,
01/01/2000,00:00:01.92,-622.07,-342.77,485.84,-28.30,-158.79,-70.51,29.70,25.05,10.65,30.09,11.475,
01/01/2000,00:00:02.01,-598.14,-412.11,835.45,-12.45,-25.19,-49.27,29.25,22.65,18.15,30.33,11.594,
01/01/2000,00:00:02.11,-476.56,-582.52,734.38,-11.48,-28.73,-44.0,27.45,17.40,22.05,29.90,11.392,
01/01/2000,00:00:02.21,-121.58,-495.12,755.37,35.99,-66.44,-37.0,21.15,14.70,28.95,29.99,11.236,
01/01/2000,00:00:02.31,-120.12,-615.23,820.31,5.02,-36.76,-49.69,17.25,12.60,35.70,30.09,11.111,
01/01/2000,00:00:02.41,-188.96,-399.41,873.54,22.82,60.40,-43.86,18.0,10.65,36.45,29.66,11.009,
01/01/2000,00:00:02.51,-245.12,-433.59,877.44,67.89,-0.35,-39.85,18.0,10.65,34.35,30.09,10.833,
01/01/2000,00:00:02.61,-146.48,-404.30,1025.39,49.37,24.86,-10.31,16.80,12.30,39.0,29.95,10.769,
01/01/2000,00:00:02.71,-224.61,-232.42,871.09,45.50,-0.89,21.95,19.95,13.50,38.55,29.66,10.714,
01/01/2000,00:00:02.81,-72.27,72.27,778.32,124.19,-122.67,50.82,18.75,19.50,44.55,29.56,10.667,
01/01/2000,00:00:02.91,-117.19,-61.04,1085.45,-20.18,-18.23,-3.51,13.65,23.55,49.50,29.61,10.625,
01/01/2000,00:00:03.02,-161.62,265.63,763.18,-29.40,50.72,-8.43,14.25,21.90,48.60,29.80,10.588,
01/01/2000,00:00:03.12,-131.35,76.17,912.11,8.98,49.08,26.40,19.50,17.25,46.35,29.75,10.556,
01/01/2000,00:00:03.22,-262.70,-250.0,1210.45,9.03,65.59,31.50,23.55,22.20,44.55,29.95,10.526,
01/01/2000,00:00:03.32,-257.32,-64.94,918.46,6.37,18.48,2.36,25.50,23.70,43.05,29.56,10.500,
01/01/2000,00:00:03.42,-291.99,-80.08,940.92,-15.58,2.85,-1.66,27.90,27.0,42.15,29.80,10.476,
01/01/2000,00:00:03.52,-336.43,-74.71,952.64,-1.21,1.95,-0.19,27.75,25.65,42.30,29.80,10.455,
01/01/2000,00:00:03.62,-338.87,-75.20,934.57,1.0,2.06,-0.33,26.70,25.50,43.20,29.80,10.435,
01/01/2000,00:00:03.72,-337.40,-70.31,953.61,1.02,1.37,2.31,27.75,26.40,43.05,29.47,10.417,
01/01/2000,00:00:03.82,-338.38,-76.17,949.71,-0.09,0.38,-1.06,27.30,25.65,42.0,29.66,10.400,
01/01/2000,00:00:03.92,-321.78,-72.75,946.78,-1.08,1.79,-1.88,27.75,26.85,41.55,29.47,10.385,
01/01/2000,00:00:04.02,-335.45,-65.43,953.13,-1.16,1.63,-0.24,26.70,26.25,41.85,29.56,10.370,
01/01/2000,00:00:04.12,-342.29,-77.64,950.20,1.11,2.37,1.89,27.30,24.60,41.55,29.56,10.357,
01/01/2000,00:00:04.22,-350.59,-83.01,995.61,-15.21,-2.44,-5.99,27.30,26.40,41.55,29.47,10.345,
01/01/2000,00:00:04.32,-348.14,-77.15,943.85,5.44,4.04,2.35,27.75,25.35,42.0,29.42,10.333,
01/01/2000,00:00:04.42,-335.94,-78.61,958.01,-0.40,3.80,-0.72,25.80,25.35,41.55,29.56,10.323,
01/01/2000,00:00:04.52,-326.66,-71.78,946.29,0.24,1.46,2.82,27.0,24.90,42.75,29.66,10.313,
01/01/2000,00:00:04.62,-333.01,-81.54,914.55,-1.08,3.63,-0.63,25.80,22.95,42.75,29.28,10.303,
01/01/2000,00:00:04.72,-349.61,-73.73,948.73,0.15,1.87,2.12,28.20,25.50,41.85,29.56,10.264,
01/01/2000,00:00:04.82,-336.43,-78.61,947.75,-2.02,3.65,-2.32,27.15,25.50,41.40,29.56,10.256,
01/01/2000,00:00:04.92,-336.43,-72.75,942.38,-2.70,2.26,1.49,26.55,24.90,42.30,29.61,10.249,
01/01/2000,00:00:05.02,-323.73,-83.50,958.98,2.37,2.65,-0.53,26.70,24.0,41.85,29.28,10.243,
01/01/2000,00:00:05.13,-336.91,-79.10,950.20,-0.72,1.37,0.20,27.15,25.05,41.85,29.56,10.236,
01/01/2000,00:00:05.23,-340.82,-61.04,947.75,0.66,2.33,-0.60,26.40,26.25,42.15,29.66,10.230,
01/01/2000,00:00:05.33,-339.36,-82.52,943.85,0.70,3.47,-1.13,27.15,24.75,42.45,29.42,10.224,
01/01/2000,00:00:05.43,-329.10,-82.03,946.29,2.56,0.22,1.49,27.0,24.60,42.0,29.47,10.219,
01/01/2000,00:00:05.53,-326.66,-68.85,943.36,-0.06,1.15,-1.84,27.45,27.0,41.85,29.56,10.214,
01/01/2000,00:00:05.63,-337.40,-83.50,948.24,0.43,0.75,-0.14,28.50,26.40,42.30,29.66,10.209,
01/01/2000,00:00:05.73,-343.75,-87.89,950.68,1.15,-0.15,0.01,27.90,25.65,41.25,29.66,10.204,
01/01/2000,00:00:05.83,-344.73,-82.03,937.99,0.85,0.50,1.08,27.90,25.50,42.15,29.37,10.200,
01/01/2000,00:00:05.93,-340.82,-78.61,940.43,-2.24,2.76,-2.28,27.30,25.35,41.55,29.42,10.195,
01/01/2000,00:00:06.03,-345.21,-78.13,946.29,-1.55,2.79,-0.96,26.55,26.40,40.95,29.75,10.191,
01/01/2000,00:00:06.13,-324.71,-69.82,940.43,-0.35,2.28,-2.70,27.15,24.30,41.10,29.08,10.187,
01/01/2000,00:00:06.23,-338.38,-74.22,950.20,-2.15,3.42,-1.87,27.90,26.25,43.20,29.56,10.183,
01/01/2000,00:00:06.33,-336.91,-73.73,957.03,1.88,1.92,-1.59,28.20,25.80,41.40,29.23,10.180,
01/01/2000,00:00:06.43,-330.57,-88.87,938.96,-2.73,1.67,0.73,27.15,25.05,41.85,29.56,10.176,
01/01/2000,00:00:06.53,-330.08,-81.54,947.27,-2.73,2.84,-3.92,27.30,24.15,41.25,29.56,10.173,
01/01/2000,00:00:06.63,-340.33,-76.17,950.20,-1.33,3.47,-1.47,28.20,25.05,41.40,29.47,10.169,
01/01/2000,00:00:06.73,-315.92,-84.47,948.24,-2.11,4.21,-1.55,26.55,23.70,41.25,29.47,10.148,
01/01/2000,00:00:06.83,-329.10,-71.78,938.96,-1.98,0.93,-0.82,28.05,24.60,41.55,29.56,10.145,
01/01/2000,00:00:06.93,-335.94,-70.31,940.43,-0.26,0.43,1.56,28.05,25.35,42.0,29.42,10.142,
01/01/2000,00:00:07.03,-336.91,-83.01,953.61,-2.35,2.05,-2.48,27.75,26.10,40.95,29.56,10.140,
01/01/2000,00:00:07.14,-327.15,-84.47,950.68,0.69,3.05,-0.34,27.15,25.50,41.10,29.61,10.137,
01/01/2000,00:00:07.24,-323.24,-66.89,945.80,-1.37,0.76,-2.56,27.30,24.90,41.55,29.28,10.135,
01/01/2000,00:00:07.34,-339.36,-82.03,949.22,-2.06,2.47,-0.31,25.95,26.25,41.85,29.47,10.133,
01/01/2000,00:00:07.44,-326.66,-72.75,954.59,-0.44,1.38,2.10,25.65,25.50,44.40,29.56,10.131,
01/01/2000,00:00:07.54,-337.40,-78.13,945.31,1.67,2.83,-2.47,26.55,25.65,41.55,29.61,10.129,
01/01/2000,00:00:07.64,-346.19,-88.87,949.71,-1.36,2.42,-1.48,28.05,24.60,42.30,29.56,10.127,
01/01/2000,00:00:07.74,-326.66,-73.24,948.24,1.40,-0.25,0.53,27.45,25.80,43.20,29.28,10.125,
01/01/2000,00:00:07.84,-322.27,-73.73,952.15,0.80,4.51,0.21,27.90,25.50,41.40,29.56,10.123,
01/01/2000,00:00:07.94,-329.59,-74.22,953.61,-0.63,2.58,1.40,27.90,25.50,41.85,29.61,10.121,
01/01/2000,00:00:08.04,-326.66,-73.24,946.78,-0.24,3.14,-2.13,27.90,23.55,42.45,29.47,10.119,
01/01/2000,00:00:08.14,-319.34,-66.89,927.73,0.29,2.56,-2.51,26.40,25.50,42.15,29.42,10.117,
01/01/2000,00:00:08.24,-330.57,-81.05,956.54,-0.22,1.05,-1.67,28.65,26.25,42.15,29.66,10.116,
01/01/2000,00:00:08.34,-324.71,-77.15,942.38,-0.52,2.78,0.29,28.95,25.05,42.90,29.47,10.114,
01/01/2000,00:00:08.44,-338.87,-77.64,941.41,-1.90,2.55,-2.35,26.70,25.05,41.40,29.47,10.112,
01/01/2000,00:00:08.54,-342.29,-77.64,937.99,-2.07,3.66,1.27,27.30,24.60,42.75,29.47,10.111,
01/01/2000,00:00:08.64,-333.98,-77.15,954.59,-1.48,3.91,-1.54,26.40,24.75,42.15,29.61,10.109,
01/01/2000,00:00:08.74,-347.66,-67.87,953.13,0.12,0.48,-0.37,28.05,26.10,41.55,29.47,10.094,
01/01/2000,00:00:08.84,-335.94,-81.05,939.94,-0.90,1.90,-0.84,27.15,25.50,42.90,29.47,10.093,
01/01/2000,00:00:08.94,-344.24,-78.13,942.87,-1.04,1.63,-0.45,28.20,25.05,41.40,29.56,10.092,
01/01/2000,00:00:09.04,-336.43,-74.22,947.27,-1.20,1.78,-0.29,27.0,24.90,42.0,29.47,10.091,
01/01/2000,00:00:09.15,-329.10,-80.08,939.94,-0.95,2.24,-2.31,27.15,25.50,41.85,29.13,10.089,
01/01/2000,00:00:09.25,-324.22,-88.38,943.85,-0.50,1.55,-1.91,27.75,25.35,42.30,29.37,10.088,
01/01/2000,00:00:09.35,-333.50,-70.80,942.38,-0.96,-2.94,-1.05,27.75,24.90,41.25,29.47,10.087,
01/01/2000,00:00:09.45,-326.66,-81.54,954.10,-1.51,1.90,-1.80,25.95,25.50,42.90,29.37,10.086,
01/01/2000,00:00:09.55,-312.50,-65.92,957.52,1.13,-2.10,0.08,28.20,24.0,42.90,29.37,10.085,
01/01/2000,00:00:09.65,-329.10,-79.59,947.75,-2.32,1.49,1.32,27.30,24.90,42.0,29.56,10.084,
01/01/2000,00:00:09.75,-342.77,-81.54,934.57,-0.42,2.79,-2.57,26.70,25.80,41.10,29.47,10.083,
01/01/2000,00:00:09.85,-322.75,-80.08,948.73,-1.59,3.43,-0.66,27.15,26.25,41.40,29.37,10.082,
01/01/2000,00:00:09.95,-329.59,-86.43,937.50,-0.45,0.89,0.92,28.65,25.50,42.15,29.47,10.081,
01/01/2000,00:00:10.05,-338.38,-79.59,930.66,0.83,4.37,-0.94,26.70,25.05,41.40,29.28,10.080,
01/01/2000,00:00:10.15,-328.13,-75.20,937.99,2.55,2.61,-1.21,26.25,26.10,40.95,29.47,10.079,
01/01/2000,00:00:10.25,-333.50,-85.94,942.38,-0.24,2.47,1.32,28.80,25.80,41.40,29.42,10.078,
01/01/2000,00:00:10.35,-325.68,-72.27,942.38,0.39,-0.17,-1.03,26.25,25.35,41.55,29.37,10.078,
01/01/2000,00:00:10.45,-335.45,-82.52,936.04,-1.87,2.99,-0.98,26.70,25.50,42.90,29.42,10.077,
01/01/2000,00:00:10.55,-331.54,-77.15,948.73,-1.13,3.11,-3.08,27.30,25.65,41.55,29.61,10.076,
01/01/2000,00:00:10.65,-335.94,-77.64,952.15,0.51,-0.41,-0.67,26.70,25.05,41.10,29.47,10.075,
01/01/2000,00:00:10.75,-320.80,-70.80,952.15,-0.39,2.66,-2.42,26.40,24.75,42.90,29.37,10.074,
01/01/2000,00:00:10.85,-342.29,-69.34,957.52,1.05,1.25,-0.63,26.55,26.40,41.55,29.13,10.063,
01/01/2000,00:00:10.95,-321.29,-74.22,939.94,-0.45,2.91,-5.25,27.45,25.50,42.15,29.37,10.062,
01/01/2000,00:00:11.05,-330.08,-78.13,954.59,-2.39,2.30,-1.95,27.45,25.05,41.10,29.47,10.062,
01/01/2000,00:00:11.15,-345.21,-80.57,944.34,0.02,-2.11,0.63,27.30,24.60,41.25,29.42,10.061,
01/01/2000,00:00:11.26,-335.45,-75.20,947.75,-0.46,1.21,-0.37,27.45,26.25,42.45,29.37,10.060,
01/01/2000,00:00:11.36,-331.54,-74.22,951.66,-1.15,0.68,0.36,28.05,25.65,41.25,29.56,10.060,
01/01/2000,00:00:11.46,-325.68,-82.03,948.73,0.22,0.33,1.24,27.0,26.10,42.0,29.56,10.059,
01/01/2000,00:00:11.56,-334.96,-64.94,940.43,-0.95,1.18,-1.40,28.20,25.50,43.20,29.56,10.059,
01/01/2000,00:00:11.66,-332.52,-67.87,938.48,-0.17,2.56,1.08,25.80,26.10,42.0,29.47,10.058,
01/01/2000,00:00:11.76,-335.45,-81.05,946.78,-0.50,3.79,2.72,28.20,25.80,42.15,29.47,10.057,
01/01/2000,00:00:11.86,-333.98,-76.66,953.13,-0.99,1.76,-2.54,27.15,25.50,41.10,29.42,10.057,
01/01/2000,00:00:11.96,-332.52,-82.52,956.05,2.50,1.47,2.45,26.70,25.80,41.40,29.61,10.056,
01/01/2000,00:00:12.06,-336.43,-83.98,959.96,0.10,3.39,-0.31,28.20,24.30,41.85,29.56,10.056,
01/01/2000,00:00:12.16,-331.54,-78.13,946.29,0.48,3.72,-2.52,25.80,25.65,43.50,29.47,10.055,
01/01/2000,00:00:12.26,-340.33,-76.66,945.31,-1.18,2.66,1.01,28.05,24.90,42.0,29.56,10.055,
01/01/2000,00:00:12.36,-345.21,-75.20,949.22,1.49,0.95,-0.02,27.30,25.35,41.55,29.42,10.054,
01/01/2000,00:00:12.46,-327.64,-74.22,943.36,-1.93,0.85,-1.01,27.45,25.50,43.95,29.47,10.054,
01/01/2000,00:00:12.56,-335.94,-77.15,937.01,-0.11,0.43,1.50,27.90,25.50,42.15,29.13,10.053,
01/01/2000,00:00:12.66,-327.15,-80.57,945.31,-0.37,1.21,0.27,27.30,24.90,42.30,29.47,10.053,
01/01/2000,00:00:12.76,-343.26,-73.24,949.22,-0.80,1.30,-0.18,26.55,25.65,40.50,29.13,10.044,
01/01/2000,00:00:12.86,-322.75,-77.15,947.75,-6.47,0.84,-3.18,27.90,25.05,42.45,29.47,10.043,
01/01/2000,00:00:12.96,-338.38,-77.15,942.87,-2.50,1.18,-0.21,26.40,24.0,40.65,29.47,10.043,
01/01/2000,00:00:13.06,-327.15,-79.10,941.89,-1.31,2.73,-2.14,24.75,25.65,42.0,29.47,10.043,
01/01/2000,00:00:13.16,-304.69,-83.01,922.85,-2.94,-1.58,-0.15,25.95,25.50,41.85,29.56,10.042,
01/01/2000,00:00:13.27,-327.15,-79.10,945.31,-0.58,-0.25,0.21,26.55,25.35,42.0,29.47,10.042,
01/01/2000,00:00:13.37,-330.08,-95.70,946.29,-0.47,-0.24,-1.31,27.75,25.65,43.50,29.13,10.041,
01/01/2000,00:00:13.47,-333.50,-80.08,948.73,-0.04,-0.60,0.41,27.75,23.70,43.05,29.56,10.041,
01/01/2000,00:00:13.57,-328.13,-80.57,942.38,0.05,0.39,1.65,27.15,24.30,41.85,29.42,10.041,
01/01/2000,00:00:13.67,-331.54,-67.87,944.34,0.44,3.10,-0.44,28.50,23.70,41.55,29.75,10.040,
01/01/2000,00:00:13.77,-323.73,-87.40,938.48,-0.92,2.07,-2.48,26.70,24.75,43.20,29.42,10.040,
01/01/2000,00:00:13.87,-329.10,-79.59,940.92,1.87,0.31,2.01,26.55,25.35,42.0,29.56,10.040,
01/01/2000,00:00:13.97,-337.89,-70.31,955.57,0.85,3.31,-0.42,26.70,25.05,41.85,29.37,10.040,
01/01/2000,00:00:14.07,-332.03,-83.01,967.77,5.36,2.92,-0.31,27.0,26.10,42.75,29.80,10.039,
01/01/2000,00:00:14.17,-328.61,-91.31,955.57,-1.31,3.40,-2.22,27.45,27.0,43.20,29.28,10.039,
01/01/2000,00:00:14.27,-332.52,-79.10,948.24,1.51,2.12,0.50,27.0,24.90,42.0,29.42,10.039,
01/01/2000,00:00:14.37,-333.98,-78.13,943.85,-2.27,2.07,-1.15,27.45,25.80,43.95,29.56,10.038,
01/01/2000,00:00:14.47,-324.71,-82.52,949.71,-0.25,0.72,0.53,27.90,25.50,41.85,29.56,10.038,
01/01/2000,00:00:14.57,-323.24,-76.66,954.59,-0.70,1.47,0.25,28.50,26.10,43.05,29.56,10.038,
01/01/2000,00:00:14.67,-318.85,-76.17,949.71,-0.85,1.47,-1.18,26.70,25.05,43.65,29.56,10.037,
01/01/2000,00:00:14.77,-326.17,-84.96,948.24,-0.51,0.78,0.27,27.0,26.10,41.25,29.56,10.037,
01/01/2000,00:00:14.87,-326.66,-71.29,951.66,0.05,2.62,-0.11,28.20,26.25,41.10,29.61,10.029,
01/01/2000,00:00:14.97,-322.75,-83.98,941.89,0.94,1.51,-0.26,27.0,25.35,41.25,29.56,10.029,
01/01/2000,00:00:15.07,-328.61,-80.08,957.52,0.24,1.42,-2.17,27.75,24.60,42.75,29.42,10.029,
01/01/2000,00:00:15.17,-328.61,-84.47,952.15,0.24,-0.56,-0.24,27.90,24.75,41.85,29.56,10.029,
01/01/2000,00:00:15.28,-341.31,-83.01,949.22,-2.63,0.72,0.95,27.90,25.05,41.10,29.56,10.029,
01/01/2000,00:00:15.38,-320.80,-81.05,951.17,-0.85,1.91,0.11,27.30,24.60,42.30,29.56,10.028,
01/01/2000,00:00:15.48,-332.03,-78.61,949.71,1.51,-1.63,1.18,27.90,25.05,41.40,29.42,10.028,
01/01/2000,00:00:15.58,-326.17,-82.52,955.08,0.45,2.85,0.68,27.90,24.30,42.45,29.47,10.028,
01/01/2000,00:00:15.68,-336.91,-81.54,948.24,-0.50,1.47,-0.38,26.70,26.25,42.45,29.28,10.028,
01/01/2000,00:00:15.78,-316.41,-69.82,946.78,0.98,3.31,-4.15,26.55,24.60,42.30,29.56,10.028,
01/01/2000,00:00:15.88,-327.15,-83.01,948.24,-0.37,1.91,-3.95,27.45,25.80,41.40,29.42,10.027,
01/01/2000,00:00:15.98,-331.05,-90.33,943.36,-1.58,2.29,-1.59,27.45,25.05,41.85,29.56,10.027,
01/01/2000,00:00:16.08,-342.29,-80.57,947.75,-1.18,3.80,1.11,26.70,24.0,42.90,29.28,10.027,
01/01/2000,00:00:16.18,-331.05,-73.73,951.17,0.23,-0.26,-0.24,26.55,24.90,40.50,29.47,10.027,
01/01/2000,00:00:16.28,-321.78,-77.64,957.03,0.37,0.30,-0.53,26.70,24.30,42.15,29.37,10.027,
01/01/2000,00:00:16.38,-330.57,-82.03,958.01,0.27,2.07,-2.88,27.30,24.60,41.55,29.66,10.027,
01/01/2000,00:00:16.48,-328.61,-87.40,947.75,0.11,0.96,1.48,26.55,26.10,42.30,29.56,10.026,
01/01/2000,00:00:16.58,-327.64,-74.22,948.24,-3.0,2.02,-2.08,27.45,24.0,43.65,29.56,10.026,
01/01/2000,00:00:16.68,-333.98,-74.71,949.71,-3.27,3.67,-1.59,27.0,24.60,42.30,29.61,10.026,
01/01/2000,00:00:16.78,-327.15,-77.64,942.38,-2.98,3.42,-1.78,27.30,24.90,42.75,29.56,10.019,
01/01/2000,00:00:16.88,-326.66,-78.61,946.78,1.06,2.97,-0.82,26.55,24.15,43.05,29.56,10.019,
01/01/2000,00:00:16.98,-325.20,-82.03,948.73,1.35,0.72,-0.87,27.45,25.05,41.40,29.66,10.019,
01/01/2000,00:00:17.08,-332.52,-84.47,947.27,1.79,0.61,-1.73,27.30,25.35,42.0,29.47,10.019,
01/01/2000,00:00:17.18,-334.96,-89.36,957.03,3.04,-0.27,2.24,27.15,25.80,42.45,29.56,10.019,
01/01/2000,00:00:17.29,-311.04,-78.61,924.80,-1.12,1.47,-0.83,25.50,24.60,43.05,29.37,10.019,
01/01/2000,00:00:17.39,-333.98,-77.15,941.89,-2.01,1.78,-1.60,28.05,24.90,41.25,29.47,10.019,
01/01/2000,00:00:17.49,-319.82,-83.01,960.94,-0.69,-0.02,-2.01,26.55,24.90,42.0,29.47,10.019,
01/01/2000,00:00:17.59,-328.61,-74.71,944.34,-0.06,0.78,-0.43,27.45,24.30,41.40,29.80,10.018,
01/01/2000,00:00:17.69,-323.73,-79.59,949.22,-1.43,2.84,0.08,26.70,24.0,41.85,29.56,10.018,
01/01/2000,00:00:17.79,-334.47,-83.50,952.64,0.41,0.72,-0.06,27.30,26.40,42.30,29.56,10.018,
01/01/2000,00:00:17.89,-329.10,-84.96,945.80,-1.76,3.73,-1.89,27.30,25.35,43.05,29.61,10.018,
01/01/2000,00:00:17.99,-327.15,-77.15,948.24,2.08,1.18,1.08,27.15,24.75,42.15,29.66,10.018,
01/01/2000,00:00:18.09,-321.78,-82.52,952.15,-0.05,1.08,1.56,27.0,24.60,42.30,29.56,10.018,
01/01/2000,00:00:18.19,-329.10,-74.71,940.43,1.25,1.19,0.89,28.20,25.05,41.40,29.47,10.018,
01/01/2000,00:00:18.29,-335.45,-73.73,954.59,-0.48,0.91,1.89,27.15,26.25,42.15,29.23,10.018,
01/01/2000,00:00:18.39,-335.45,-84.96,961.43,-1.08,3.27,0.37,27.75,26.10,42.30,29.47,10.018,
01/01/2000,00:00:18.49,-323.73,-86.91,947.27,1.38,2.55,-1.20,26.55,24.60,42.75,29.61,10.017,
01/01/2000,00:00:18.59,-329.10,-61.04,958.50,-2.74,-0.50,-3.37,28.20,25.05,41.40,29.47,10.017,
01/01/2000,00:00:18.69,-316.89,-83.98,931.64,1.36,1.17,1.27,26.40,24.30,42.15,29.47,10.017,
01/01/2000,00:00:18.79,-331.54,-85.94,948.73,1.0,2.55,-1.02,27.30,24.90,42.30,29.61,10.017,
01/01/2000,00:00:18.89,-336.91,-84.47,956.54,2.63,3.56,-1.76,27.30,25.35,42.0,29.42,10.011,
01/01/2000,00:00:18.99,-328.61,-82.03,952.15,3.63,0.24,3.15,27.15,25.05,43.20,29.56,10.011,
01/01/2000,00:00:19.09,-342.77,-75.68,937.99,-2.19,0.16,-0.60,29.40,25.80,41.85,29.56,10.011,
01/01/2000,00:00:19.19,-324.22,-73.24,947.75,-1.57,2.73,-1.67,28.50,25.35,42.0,29.56,10.011,
01/01/2000,00:00:19.30,-328.61,-73.24,962.40,0.79,2.09,-3.03,25.95,24.30,42.45,29.42,10.011,
01/01/2000,00:00:19.40,-330.08,-79.10,939.45,0.60,0.82,-0.92,27.30,25.65,42.0,29.66,10.011,
01/01/2000,00:00:19.50,-327.64,-83.50,949.71,-1.43,1.26,1.67,27.0,24.15,42.0,29.47,10.011,
01/01/2000,00:00:19.60,-319.82,-82.52,945.31,2.27,2.56,-0.56,27.30,24.60,42.75,29.56,10.011,
01/01/2000,00:00:19.70,-321.78,-77.15,943.36,-2.63,0.83,-1.64,27.75,25.35,42.0,29.61,10.011,
01/01/2000,00:00:19.80,-345.70,-80.57,951.66,-1.18,1.40,0.98,25.80,26.40,43.05,29.75,10.011,
01/01/2000,00:00:19.90,-327.15,-90.33,953.13,0.36,0.75,1.05,28.50,26.10,42.30,29.61,10.011,
01/01/2000,00:00:20.00,-331.54,-80.57,942.87,-1.32,2.18,-1.50,27.30,25.35,41.55,29.61,10.011,
01/01/2000,00:00:20.10,-317.38,-82.03,947.27,0.89,1.24,-0.08,27.15,25.50,42.90,29.56,10.011,
01/01/2000,00:00:20.20,-342.77,-80.08,953.13,0.84,1.78,-2.79,26.70,25.50,42.15,29.56,10.011,
01/01/2000,00:00:20.30,-325.20,-81.05,944.34,0.03,3.21,-1.24,28.20,25.50,42.90,29.37,10.011,
01/01/2000,00:00:20.40,-328.61,-74.22,954.10,1.09,0.30,-1.69,26.70,25.80,43.65,29.56,10.010,
01/01/2000,00:00:20.50,-310.55,-74.71,928.22,1.64,3.57,-1.74,26.70,25.50,41.85,29.80,10.010,
01/01/2000,00:00:20.60,-324.22,-91.80,932.13,1.64,0.53,-0.02,27.30,24.90,42.75,29.56,10.010,
01/01/2000,00:00:20.70,-322.27,-80.57,949.22,0.47,1.67,-2.88,27.90,25.50,41.85,29.61,10.010,
01/01/2000,00:00:20.80,-326.17,-82.03,946.78,0.83,1.92,0.39,28.50,24.60,41.55,29.56,10.005,
01/01/2000,00:00:20.90,-323.73,-85.45,948.73,2.06,1.01,-2.48,26.55,25.65,42.30,29.56,10.005,
01/01/2000,00:00:21.00,-330.08,-76.66,951.66,0.10,1.49,-0.30,28.05,26.10,42.75,29.56,10.005,
01/01/2000,00:00:21.10,-319.82,-77.15,939.45,-0.15,2.86,0.41,27.15,25.50,42.90,29.61,10.005,
01/01/2000,00:00:21.21,-331.05,-79.59,945.31,-0.33,1.43,-1.53,27.90,25.05,42.15,29.61,10.005,
01/01/2000,00:00:21.31,-326.17,-86.43,938.48,-2.29,2.70,-1.18,26.70,25.05,41.85,29.37,10.005,
01/01/2000,00:00:21.41,-327.15,-80.57,942.38,-1.06,0.89,-0.40,26.40,25.80,42.15,29.61,10.005,
01/01/2000,00:00:21.51,-336.91,-71.29,951.17,1.06,1.64,1.24,26.55,26.10,41.55,29.61,10.005,
01/01/2000,00:00:21.61,-312.99,-81.54,944.82,1.98,3.35,2.56,27.45,25.80,42.90,29.56,10.005,
01/01/2000,00:00:21.71,-366.70,-85.94,979.00,-1.75,0.79,-0.72,27.45,25.05,43.65,29.47,10.005,
01/01/2000,00:00:21.81,-350.10,-87.40,925.78,-1.99,1.49,-3.08,26.55,24.60,41.55,29.75,10.005,
01/01/2000,00:00:21.91,-327.15,-76.66,967.29,1.26,0.84,-0.18,26.40,25.50,41.40,29.56,10.005,
01/01/2000,00:00:22.01,-313.48,-80.08,955.08,-0.43,4.85,-1.50,27.15,23.55,42.15,29.66,10.005,
01/01/2000,00:00:22.11,-328.61,-85.94,946.78,0.12,1.27,1.33,26.70,24.75,42.15,29.56,10.005,
01/01/2000,00:00:22.21,-320.80,-76.17,952.64,-0.18,4.44,1.48,27.45,26.25,41.85,29.66,10.005,
01/01/2000,00:00:22.31,-336.43,-89.84,942.87,1.23,1.61,-1.02,27.75,24.90,42.75,29.37,10.005,
01/01/2000,00:00:22.41,-314.45,-109.38,947.75,-2.24,1.08,-1.01,27.45,25.80,42.45,29.56,10.005,
01/01/2000,00:00:22.51,-331.54,-83.50,958.01,2.07,2.38,-0.99,27.30,24.90,42.75,29.61,10.005,
01/01/2000,00:00:22.61,-330.57,-73.73,946.78,3.64,4.79,-6.42,26.40,24.0,42.15,29.56,10.005,
01/01/2000,00:00:22.71,-289.55,-71.29,930.66,-5.56,4.40,-0.11,25.95,25.05,42.90,29.56,10.005,
01/01/2000,00:00:22.81,-306.15,-79.59,921.39,-3.27,-3.20,-1.82,27.0,26.10,41.55,29.56,10.0,
01/01/2000,00:00:22.91,-332.52,-83.98,946.29,-1.81,2.18,-3.66,27.90,25.80,42.45,29.28,10.0,
01/01/2000,00:00:23.01,-325.20,-89.36,946.29,-2.71,3.0,-0.38,27.15,25.05,41.85,29.47,10.0,
01/01/2000,00:00:23.11,-328.61,-90.33,956.05,1.34,0.60,0.62,26.40,25.50,43.65,29.13,10.0,
01/01/2000,00:00:23.22,-330.08,-83.50,953.13,0.69,0.33,-0.24,26.55,24.90,41.55,29.61,10.0,
01/01/2000,00:00:23.32,-327.15,-76.66,955.08,1.34,0.02,-0.21,26.25,24.60,41.55,29.61,10.0,
01/01/2000,00:00:23.42,-330.08,-78.13,946.29,0.44,1.37,1.57,27.15,24.75,42.15,29.61,10.0,
01/01/2000,00:00:23.52,-331.54,-69.82,950.68,0.66,-0.04,-3.11,25.50,26.10,42.0,29.56,10.0,
01/01/2000,00:00:23.62,-332.03,-79.10,956.54,-1.74,2.27,0.48,28.80,26.10,42.0,29.61,10.0,
01/01/2000,00:00:23.72,-331.05,-81.05,958.50,1.14,-0.48,-1.27,27.90,24.75,42.45,29.75,10.0,
01/01/2000,00:00:23.82,-321.78,-87.89,967.29,-1.44,3.47,0.23,28.65,24.30,42.15,29.75,10.0,
01/01/2000,00:00:23.92,-334.47,-79.59,955.08,-0.80,0.79,-0.46,26.70,25.50,41.85,29.56,10.0,
01/01/2000,00:00:24.02,-334.96,-81.05,955.57,0.58,1.88,-1.01,26.55,25.65,42.75,29.56,10.0,
01/01/2000,00:00:24.12,-327.64,-85.45,956.54,-1.64,1.95,-1.20,27.15,24.75,42.45,29.28,10.0,
01/01/2000,00:00:24.22,-336.91,-81.54,957.52,0.15,1.37,-1.44,27.30,26.40,42.75,29.80,10.0,
01/01/2000,00:00:24.32,-324.71,-93.26,962.40,0.10,1.81,-2.08,27.0,25.35,42.0,29.56,10.0,
01/01/2000,00:00:24.42,-323.24,-81.05,957.52,-0.38,2.37,-2.59,27.45,26.25,43.20,29.47,10.0,
01/01/2000,00:00:24.52,-329.10,-82.03,948.73,-1.44,-0.81,-0.76,27.0,26.40,42.0,29.47,10.0,
01/01/2000,00:00:24.62,-333.01,-86.43,945.80,-2.45,1.27,0.15,26.55,25.35,42.75,29.56,10.0,
01/01/2000,00:00:24.72,-319.34,-73.73,937.99,0.21,2.82,-0.73,26.55,26.85,42.75,29.42,9.996,
01/01/2000,00:00:24.82,-328.61,-72.75,954.10,-1.81,3.10,-2.51,27.90,24.30,43.20,29.66,9.996,
01/01/2000,00:00:24.92,-324.22,-72.27,947.27,0.17,0.64,3.46,27.45,25.05,42.45,29.56,9.996,
01/01/2000,00:00:25.02,-331.54,-76.17,956.05,0.40,-1.09,1.48,28.05,26.40,42.75,29.56,9.996,
01/01/2000,00:00:25.12,-326.17,-77.64,947.75,-1.98,2.70,0.15,27.15,25.50,41.10,29.66,9.996,
01/01/2000,00:00:25.23,-335.45,-77.64,954.59,-0.24,1.49,-2.86,27.15,25.05,42.90,29.61,9.996,
01/01/2000,00:00:25.33,-322.27,-75.20,945.80,0.79,3.01,0.59,26.55,24.15,42.75,29.90,9.996,
01/01/2000,00:00:25.43,-333.50,-81.54,940.43,-1.34,1.78,0.21,27.75,24.90,42.75,29.66,9.996,
01/01/2000,00:00:25.53,-331.05,-91.80,949.22,0.76,-0.40,-0.83,27.30,26.10,43.05,29.28,9.996,
01/01/2000,00:00:25.63,-310.55,-85.45,945.31,-2.15,3.27,-1.05,26.70,25.80,41.85,29.56,9.996,
01/01/2000,00:00:25.73,-330.57,-70.31,955.57,-0.50,4.08,-1.12,28.65,25.80,43.20,29.56,9.996,
01/01/2000,00:00:25.83,-327.15,-75.20,956.54,-1.61,1.44,0.17,27.45,25.50,42.45,29.80,9.996,
01/01/2000,00:00:25.93,-347.66,-65.43,956.05,-1.83,2.40,-1.51,26.55,25.65,43.05,29.47,9.996,
01/01/2000,00:00:26.03,-323.24,-77.64,948.73,-1.15,1.79,0.68,25.20,26.70,42.90,29.56,9.996,
01/01/2000,00:00:26.13,-316.89,-83.50,949.71,-0.92,1.11,-2.85,27.75,24.90,42.30,29.61,9.996,
01/01/2000,00:00:26.23,-326.17,-74.71,944.34,0.37,2.31,-1.49,25.95,25.05,42.90,29.61,9.996,
01/01/2000,00:00:26.33,-332.52,-88.38,970.21,0.15,4.24,0.73,25.95,25.80,42.90,29.75,9.996,
01/01/2000,00:00:26.43,-313.48,-76.17,937.99,-0.05,0.79,-0.56,26.55,25.35,41.55,29.56,9.996,
01/01/2000,00:00:26.53,-333.01,-91.31,969.24,11.15,7.08,2.31,26.40,26.25,42.90,29.56,9.996,
01/01/2000,00:00:26.63,-322.75,-77.64,1000.98,-0.77,2.34,0.18,27.45,25.80,42.15,29.47,9.992,
01/01/2000,00:00:26.73,-326.66,-74.71,959.96,-1.11,-0.09,0.42,27.45,25.05,43.95,29.75,9.992,
01/01/2000,00:00:26.83,-315.92,-74.22,930.18,2.60,2.45,0.47,28.20,25.50,42.45,29.56,9.992,
01/01/2000,00:00:26.93,-329.59,-88.38,944.82,1.96,4.12,-1.0,27.30,25.35,42.30,29.75,9.992,
01/01/2000,00:00:27.03,-324.71,-83.98,947.75,-2.48,1.50,0.56,27.45,24.30,42.45,29.56,9.992,
01/01/2000,00:00:27.14,-324.22,-75.68,935.55,1.75,0.56,0.55,26.55,25.65,41.55,29.66,9.992,
01/01/2000,00:00:27.24,-317.87,-68.36,948.24,-0.85,0.95,2.73,27.30,25.35,43.50,29.61,9.992,
01/01/2000,00:00:27.34,-330.57,-72.75,948.73,0.81,1.18,-0.60,27.15,24.30,40.65,29.95,9.992,
01/01/2000,00:00:27.44,-326.66,-80.08,933.59,2.40,2.71,-0.69,27.45,24.30,43.65,29.80,9.992,
01/01/2000,00:00:27.54,-329.59,-66.41,953.13,1.08,1.08,0.35,27.75,24.90,42.30,29.80,9.992,
01/01/2000,00:00:27.64,-333.50,-92.29,964.84,1.82,0.89,0.46,25.20,25.05,41.40,29.56,9.992,
01/01/2000,00:00:27.74,-331.54,-80.08,949.22,-2.44,2.13,-0.92,27.30,24.90,42.75,29.75,9.992,
01/01/2000,00:00:27.84,-322.27,-83.50,957.52,1.18,0.94,-0.06,26.25,25.35,43.05,29.56,9.992,
01/01/2000,00:00:27.94,-323.73,-76.66,958.50,-1.34,2.53,-0.71,27.15,24.75,42.15,29.80,9.992,
01/01/2000,00:00:28.04,-338.87,-72.27,954.10,0.07,2.24,1.79,26.25,25.35,43.05,29.42,9.993,
01/01/2000,00:00:28.14,-298.83,-82.52,934.57,-0.31,-0.81,-0.06,26.25,24.15,42.30,29.66,9.993,
01/01/2000,00:00:28.24,-316.41,-77.15,960.94,-2.01,0.88,-1.03,27.90,24.75,42.15,29.37,9.993,
01/01/2000,00:00:28.34,-327.64,-81.54,949.71,0.33,1.61,1.37,27.45,25.05,43.20,29.56,9.993,
01/01/2000,00:00:28.44,-334.96,-83.98,951.17,-0.53,2.86,-4.06,25.05,25.65,43.05,29.56,9.993,
01/01/2000,00:00:28.54,-323.73,-78.13,956.05,-0.98,1.66,0.32,29.25,26.10,43.05,29.80,9.993,
01/01/2000,00:00:28.64,-313.48,-79.10,945.31,-0.22,0.91,0.82,29.55,24.60,42.30,29.61,9.989,
01/01/2000,00:00:28.74,-326.17,-82.52,929.69,-0.05,2.99,-0.54,27.0,26.40,42.75,29.75,9.989,
01/01/2000,00:00:28.84,-328.13,-75.20,951.66,-0.82,3.94,0.11,26.70,24.75,42.15,29.61,9.989,
01/01/2000,00:00:28.94,-339.84,-92.77,962.40,8.18,6.18,2.63,26.70,25.50,43.65,29.75,9.989,
01/01/2000,00:00:29.05,-332.52,-71.78,946.29,1.08,5.11,2.66,27.45,24.75,42.15,29.47,9.989,
01/01/2000,00:00:29.15,-314.45,-74.71,957.52,-3.29,3.85,-4.73,27.75,24.90,42.75,29.80,9.989,
01/01/2000,00:00:29.25,-329.10,-72.27,945.80,-0.06,1.66,-0.66,26.25,24.90,43.05,29.80,9.989,
01/01/2000,00:00:29.35,-331.54,-86.91,949.71,-2.07,2.53,-0.68,27.15,24.30,41.85,29.80,9.989,
01/01/2000,00:00:29.45,-335.45,-87.40,944.34,-1.52,1.34,0.27,28.80,26.40,41.55,29.47,9.989,
01/01/2000,00:00:29.55,-320.80,-82.52,947.27,0.13,3.18,-1.52,27.45,25.80,42.45,29.61,9.989,
01/01/2000,00:00:29.65,-326.17,-76.66,948.24,1.60,2.72,-1.28,27.15,25.50,42.15,29.47,9.989,
01/01/2000,00:00:29.75,-326.17,-74.71,933.59,-0.24,2.72,-3.05,27.0,24.90,42.75,29.61,9.989,
01/01/2000,00:00:29.85,-325.68,-73.24,951.66,-0.92,2.56,-1.44,26.55,26.40,42.30,29.56,9.989,
01/01/2000,00:00:29.95,-332.03,-66.41,952.64,0.73,-0.67,-1.68,24.75,24.60,41.55,29.56,9.990,
01/01/2000,00:00:30.05,-318.85,-85.45,953.13,-1.14,3.24,-2.04,27.45,25.05,41.85,29.61,9.990,
01/01/2000,00:00:30.15,-333.01,-83.01,963.38,0.61,1.15,1.16,27.15,25.80,42.15,29.56,9.990,
01/01/2000,00:00:30.25,-330.57,-81.54,941.41,-0.72,0.44,1.78,26.40,25.80,43.65,29.61,9.990,
01/01/2000,00:00:30.35,-320.80,-90.33,955.57,-1.99,0.98,0.02,27.45,26.25,41.85,29.56,9.990,
01/01/2000,00:00:30.45,-326.17,-82.03,942.87,-0.18,0.90,-0.50,27.30,25.35,41.55,29.61,9.990,
01/01/2000,00:00:30.55,-324.22,-94.73,950.20,1.99,0.02,0.10,27.30,26.10,42.30,29.56,9.986,
01/01/2000,00:00:30.65,-327.15,-72.75,955.57,-1.27,1.56,1.27,27.90,25.50,42.90,29.61,9.986,
01/01/2000,00:00:30.75,-333.98,-76.66,952.64,0.02,0.42,-0.03,27.90,26.70,42.45,29.61,9.986,
01/01/2000,00:00:30.85,-319.82,-76.17,944.34,2.47,2.37,1.02,26.70,25.80,42.90,29.80,9.986,
01/01/2000,00:00:30.96,-321.78,-86.43,956.05,1.86,3.34,-1.11,25.65,25.50,42.90,29.61,9.987,
01/01/2000,00:00:31.06,-325.68,-82.52,936.04,0.17,0.50,-2.52,26.70,25.50,42.45,29.80,9.987,
01/01/2000,00:00:31.16,-331.54,-86.43,951.66,-1.95,1.14,-1.37,27.30,25.65,42.75,29.66,9.987,
01/01/2000,00:00:31.26,-327.64,-84.96,945.31,-1.61,2.25,-2.31,27.15,25.80,41.40,29.75,9.987,
01/01/2000,00:00:31.36,-325.20,-78.13,951.17,1.13,0.79,0.84,27.0,24.15,42.30,29.47,9.987,
01/01/2000,00:00:31.46,-328.61,-89.36,953.61,2.12,0.34,0.39,27.0,26.85,43.50,29.56,9.987,
01/01/2000,00:00:31.56,-326.17,-79.10,944.34,-0.39,1.86,1.82,27.90,25.80,42.15,29.66,9.987,
01/01/2000,00:00:31.66,-313.48,-74.22,959.47,1.01,3.35,-0.87,28.80,26.40,43.05,29.66,9.987,
01/01/2000,00:00:31.76,-329.59,-80.57,955.57,-0.76,1.04,1.82,27.30,24.60,40.95,29.56,9.987,
01/01/2000,00:00:31.86,-323.24,-72.27,945.80,-0.50,1.89,-0.71,27.15,24.75,41.40,29.61,9.987,
01/01/2000,00:00:31.96,-320.80,-87.40,943.85,-0.83,2.73,-3.35,27.0,26.85,42.30,29.61,9.987,
01/01/2000,00:00:32.06,-335.45,-79.10,954.10,2.54,-0.31,-1.24,27.0,24.90,40.95,29.66,9.987,
01/01/2000,00:00:32.16,-334.47,-78.13,942.38,0.08,-0.06,-1.60,27.30,24.90,42.75,29.37,9.987,
01/01/2000,00:00:32.26,-320.80,-98.63,945.31,-0.64,1.17,-2.98,25.50,26.10,43.05,29.80,9.987,
01/01/2000,00:00:32.36,-324.71,-70.80,956.54,0.29,2.16,-0.71,28.95,26.25,42.90,29.80,9.987,
01/01/2000,00:00:32.46,-314.94,-68.85,942.87,0.19,2.34,-0.07,28.05,25.65,42.0,29.56,9.984,
01/01/2000,00:00:32.56,-320.31,-88.87,959.47,-0.62,3.19,-1.75,27.15,25.05,42.45,29.56,9.984,
01/01/2000,00:00:32.66,-324.22,-78.61,944.82,1.18,-0.80,1.0,26.55,26.40,42.30,29.80,9.984,
01/01/2000,00:00:32.76,-331.54,-70.80,956.05,-1.68,1.28,-2.08,26.55,25.65,40.95,29.56,9.984,
01/01/2000,00:00:32.86,-328.61,-83.01,951.66,-1.28,1.81,0.09,26.55,26.10,42.0,29.80,9.984,
01/01/2000,00:00:32.97,-329.59,-93.75,950.20,-0.22,2.12,-2.67,27.15,27.45,43.65,29.80,9.984,
01/01/2000,00:00:33.07,-308.59,-86.91,949.71,1.48,1.11,0.31,27.0,23.70,42.30,29.61,9.984,
01/01/2000,00:00:33.17,-324.22,-85.94,958.50,1.45,2.67,-1.69,26.55,26.85,43.05,29.80,9.984,
01/01/2000,00:00:33.27,-336.43,-79.10,951.17,-1.27,3.47,0.56,26.55,25.35,42.75,29.80,9.984,
01/01/2000,00:00:33.37,-327.64,-74.71,950.20,0.37,-0.41,0.76,26.25,25.35,42.75,29.80,9.984,
01/01/2000,00:00:33.47,-334.96,-80.57,944.82,-0.24,3.69,-1.11,27.15,26.25,41.40,29.61,9.984,
01/01/2000,00:00:33.57,-341.31,-69.34,912.11,4.29,1.20,-0.01,28.20,26.70,41.85,29.75,9.984,
01/01/2000,00:00:33.67,-354.98,-88.38,968.75,-0.50,-0.16,-2.38,28.50,24.15,42.75,29.66,9.985,
01/01/2000,00:00:33.77,-317.87,-83.01,943.36,-1.65,5.09,-2.37,27.0,26.10,42.0,29.56,9.985,
01/01/2000,00:00:33.87,-316.41,-83.50,940.43,-0.94,1.24,-1.12,27.45,24.75,42.15,29.75,9.985,
01/01/2000,00:00:33.97,-325.20,-72.27,944.34,-1.86,3.69,-0.11,27.0,24.90,43.80,29.66,9.985,
01/01/2000,00:00:34.07,-329.59,-86.43,955.08,-1.21,2.82,1.13,27.15,25.80,43.95,29.37,9.985,
01/01/2000,00:00:34.17,-324.71,-83.98,979.00,-9.27,-2.08,-2.36,26.70,25.50,43.20,29.80,9.985,
01/01/2000,00:00:34.27,-326.66,-69.34,957.03,-0.04,3.08,-1.22,27.15,25.05,42.45,29.80,9.985,
01/01/2000,00:00:34.37,-322.75,-82.03,945.80,0.36,-0.98,1.66,25.95,24.75,42.15,29.75,9.985,
01/01/2000,00:00:34.47,-324.22,-83.98,954.10,1.13,2.02,-1.56,25.95,25.80,42.15,29.80,9.982,
01/01/2000,00:00:34.57,-310.06,-87.40,950.68,-0.28,2.0,-0.59,27.15,26.25,41.85,29.66,9.982,
01/01/2000,00:00:34.67,-324.22,-82.03,949.71,-0.58,3.98,-2.38,28.80,25.35,42.75,29.66,9.982,
01/01/2000,00:00:34.77,-307.62,-81.05,950.68,-1.81,3.38,0.79,25.50,25.35,43.05,29.56,9.982,
01/01/2000,00:00:34.88,-327.64,-74.71,949.71,-0.26,2.75,-0.17,28.05,24.15,42.0,29.37,9.982,
01/01/2000,00:00:34.98,-322.27,-86.43,946.29,1.27,2.62,1.80,27.0,23.70,42.75,29.90,9.982,
01/01/2000,00:00:35.08,-309.57,-77.15,947.75,-2.65,1.39,-3.62,26.70,24.30,42.15,29.75,9.982,
01/01/2000,00:00:35.18,-333.50,-80.08,942.87,0.38,0.71,-1.07,27.30,24.60,42.75,29.56,9.982,
01/01/2000,00:00:35.28,-321.29,-80.57,952.15,-0.97,0.56,1.24,27.0,25.35,43.80,29.66,9.982,
01/01/2000,00:00:35.38,-316.89,-72.27,947.75,0.95,1.89,-2.27,25.20,25.80,41.85,29.56,9.982,
01/01/2000,00:00:35.48,-318.36,-81.05,949.71,-0.39,2.44,-0.37,29.55,25.65,42.30,29.66,9.982,
01/01/2000,00:00:35.58,-320.80,-88.87,949.22,-0.21,3.63,-0.98,27.90,24.75,42.15,29.95,9.982,
01/01/2000,00:00:35.68,-328.61,-77.15,933.11,-0.80,3.22,0.03,26.40,24.0,42.45,29.90,9.983,
01/01/2000,00:00:35.78,-331.54,-65.43,958.50,-0.32,0.53,0.92,27.45,25.50,43.65,29.80,9.983,
01/01/2000,00:00:35.88,-309.08,-85.45,974.12,-0.15,3.50,3.79,25.80,26.10,42.75,29.56,9.983,
01/01/2000,00:00:35.98,-328.13,-85.45,945.31,-0.35,1.66,0.48,27.75,25.35,43.50,29.80,9.983,
01/01/2000,00:00:36.08,-327.64,-87.40,953.13,-1.35,2.12,-1.02,27.30,23.70,43.05,29.56,9.983,
01/01/2000,00:00:36.18,-317.38,-93.26,943.36,-0.84,2.45,0.50,27.45,26.25,42.15,29.80,9.983,
01/01/2000,00:00:36.28,-324.22,-104.98,937.01,0.79,0.08,4.72,27.15,25.50,42.45,29.61,9.983,
01/01/2000,00:00:36.38,-324.22,-86.43,940.43,-2.70,1.95,-1.73,25.80,25.65,43.05,29.80,9.980,
01/01/2000,00:00:36.48,-323.73,-86.43,945.80,-0.56,0.50,-0.39,27.90,24.30,42.90,29.95,9.980,
01/01/2000,00:00:36.58,-331.05,-86.43,950.20,-1.85,2.79,-1.82,27.75,25.35,42.0,29.75,9.980,
01/01/2000,00:00:36.68,-320.31,-90.82,943.36,0.42,3.01,-1.04,27.0,25.35,42.75,29.90,9.980,
01/01/2000,00:00:36.79,-321.29,-85.45,946.78,0.31,0.24,-1.98,26.40,25.50,41.85,29.80,9.980,
01/01/2000,00:00:36.89,-332.03,-94.24,942.38,-0.66,4.04,-4.40,27.0,25.65,43.80,29.80,9.980,
01/01/2000,00:00:36.99,-324.71,-81.54,953.61,0.68,0.81,-3.18,28.20,25.80,42.15,29.37,9.980,
01/01/2000,00:00:37.09,-308.11,-79.10,948.73,-1.91,2.60,-0.49,27.90,26.25,43.20,29.75,9.980,
01/01/2000,00:00:37.19,-333.01,-75.68,955.57,-2.11,3.72,0.61,27.30,25.35,43.05,29.66,9.980,
01/01/2000,00:00:37.29,-307.13,-78.61,964.36,0.09,1.62,0.66,27.15,25.05,43.20,29.75,9.981,
01/01/2000,00:00:37.39,-310.06,-84.96,952.15,1.36,2.30,-0.84,27.30,24.60,42.30,29.61,9.981,
01/01/2000,00:00:37.49,-330.57,-76.17,956.05,0.15,1.15,-0.51,26.25,24.15,42.30,29.61,9.981,
01/01/2000,00:00:37.59,-317.87,-76.17,950.20,-0.21,1.76,-2.56,27.30,27.15,41.55,29.80,9.981,
01/01/2000,00:00:37.69,-323.24,-81.05,956.54,-0.91,0.69,-3.98,25.05,26.40,43.50,29.75,9.981,
01/01/2000,00:00:37.79,-331.54,-73.24,943.85,0.18,1.36,-1.16,25.80,25.35,42.30,29.61,9.981,
01/01/2000,00:00:37.89,-314.94,-86.43,952.64,-1.42,1.70,1.85,26.25,26.40,43.05,29.80,9.981,
01/01/2000,00:00:37.99,-295.90,-75.68,909.18,-2.73,3.62,7.96,27.90,26.25,43.95,29.61,9.981,
01/01/2000,00:00:38.09,-312.50,-77.15,946.78,0.50,-1.54,1.15,26.40,25.50,43.65,29.80,9.981,
01/01/2000,00:00:38.19,-324.71,-80.08,924.80,-2.06,-1.20,1.66,26.70,25.50,42.45,29.61,9.981,
01/01/2000,00:00:38.29,-324.71,-70.80,978.03,-0.97,1.92,-0.14,27.15,26.25,42.15,29.90,9.981,
01/01/2000,00:00:38.39,-333.50,-90.33,945.80,-1.10,-0.24,0.88,28.50,24.90,42.30,29.75,9.978,
01/01/2000,00:00:38.49,-330.08,-91.31,949.22,-0.18,1.56,-2.31,27.30,26.40,44.55,29.61,9.978,
01/01/2000,00:00:38.59,-315.92,-90.82,937.99,1.12,0.19,-0.99,25.95,27.0,43.95,29.80,9.979,
01/01/2000,00:00:38.69,-318.36,-74.71,958.01,-0.33,0.43,1.15,26.55,26.40,42.0,29.66,9.979,
01/01/2000,00:00:38.80,-314.45,-89.84,948.24,-0.11,-1.29,-1.59,28.50,26.40,43.05,29.80,9.979,
01/01/2000,00:00:38.90,-332.52,-90.33,958.01,-1.20,1.56,-0.21,26.70,26.70,42.45,29.75,9.979,
01/01/2000,00:00:39.00,-319.82,-82.52,946.78,-3.27,1.66,-2.15,26.25,26.10,43.05,29.75,9.979,
01/01/2000,00:00:39.10,-315.92,-71.29,949.71,1.05,0.82,1.36,27.0,25.35,44.85,29.95,9.979,
01/01/2000,00:00:39.20,-323.24,-83.98,960.45,-0.94,0.51,-0.23,27.90,25.05,43.20,29.80,9.979,
01/01/2000,00:00:39.30,-321.78,-80.08,959.96,-1.69,2.50,-2.97,25.95,25.05,41.40,29.66,9.979,
01/01/2000,00:00:39.40,-330.08,-84.96,941.41,-0.59,1.33,0.60,28.20,26.25,43.65,29.80,9.979,
01/01/2000,00:00:39.50,-319.82,-88.38,954.59,0.19,3.56,-1.88,26.70,26.25,42.45,29.80,9.979,
01/01/2000,00:00:39.60,-331.05,-66.41,956.05,-2.18,2.18,-1.26,26.55,26.40,42.75,29.80,9.979,
01/01/2000,00:00:39.70,-328.13,-86.43,954.59,-1.01,6.04,-0.15,27.45,25.80,42.45,29.80,9.979,
01/01/2000,00:00:39.80,-314.45,-84.47,954.10,-2.46,2.53,-1.90,27.75,26.85,42.30,29.75,9.979,
01/01/2000,00:00:39.90,-319.34,-81.05,944.34,2.42,1.17,3.68,27.45,25.50,42.90,29.90,9.979,
01/01/2000,00:00:40.00,-329.59,-89.36,958.01,-0.20,3.50,-2.31,28.05,26.10,42.30,29.61,9.979,
01/01/2000,00:00:40.10,-332.52,-83.98,947.27,0.78,1.37,0.82,27.30,25.65,41.55,29.80,9.979,
01/01/2000,00:00:40.20,-324.71,-90.33,946.29,-0.77,1.11,-1.76,28.65,25.80,41.85,29.95,9.977,
01/01/2000,00:00:40.30,-321.78,-85.45,949.71,-0.31,2.23,-0.09,27.15,25.80,42.45,29.90,9.977,
01/01/2000,00:00:40.40,-314.45,-69.34,940.43,0.27,0.80,0.07,26.55,26.85,42.0,29.80,9.977,
01/01/2000,00:00:40.50,-322.75,-89.36,952.64,0.53,1.64,-2.02,27.45,26.25,42.45,29.66,9.977,
01/01/2000,00:00:40.60,-325.20,-88.38,950.20,1.24,0.66,0.03,27.75,25.65,42.0,29.66,9.977,
01/01/2000,00:00:40.71,-324.22,-85.94,947.75,1.40,0.20,0.19,25.95,24.30,41.10,29.75,9.977,
01/01/2000,00:00:40.81,-307.13,-91.31,948.24,0.05,4.01,0.90,27.45,24.75,42.15,29.80,9.977,
01/01/2000,00:00:40.91,-310.55,-88.38,961.43,-0.04,-0.28,-2.73,27.30,24.90,41.55,29.61,9.977,
01/01/2000,00:00:41.01,-307.13,-82.03,954.59,-0.62,1.71,2.92,26.55,26.85,40.20,29.95,9.977,
01/01/2000,00:00:41.11,-314.94,-83.01,949.71,-0.10,0.40,0.19,27.75,24.60,41.55,29.80,9.977,
01/01/2000,00:00:41.21,-322.75,-84.47,958.50,0.20,1.21,-0.61,26.70,25.80,42.15,29.80,9.977,
01/01/2000,00:00:41.31,-313.48,-89.36,951.17,-1.08,0.78,-0.43,27.75,26.85,42.0,29.56,9.977,
01/01/2000,00:00:41.41,-318.36,-90.33,956.54,-1.48,0.69,-2.31,26.70,25.80,42.15,29.75,9.978,
01/01/2000,00:00:41.51,-314.45,-86.43,936.04,0.41,1.71,-1.33,27.30,24.90,43.80,29.80,9.978,
01/01/2000,00:00:41.61,-311.04,-77.15,950.68,0.80,2.52,-1.76,26.55,26.10,42.0,29.95,9.978,
01/01/2000,00:00:41.71,-321.78,-80.57,957.52,2.29,0.47,0.95,28.05,26.40,42.0,29.56,9.978,
01/01/2000,00:00:41.81,-311.04,-91.80,964.36,-0.11,3.63,-1.17,26.25,25.65,40.95,29.80,9.978,
01/01/2000,00:00:41.91,-326.17,-86.43,946.78,0.90,1.21,0.71,27.75,26.10,42.75,29.80,9.978,
01/01/2000,00:00:42.01,-329.10,-82.52,958.50,0.37,0.47,-0.58,26.40,27.0,43.20,29.90,9.978,
01/01/2000,00:00:42.11,-323.24,-79.10,953.13,-1.38,2.96,0.73,27.0,26.10,42.0,29.95,9.978,
01/01/2000,00:00:42.21,-319.82,-88.38,951.17,-2.69,5.02,0.12,27.30,25.35,43.05,29.80,9.976,
01/01/2000,00:00:42.31,-319.82,-78.61,958.50,-1.16,2.07,-2.09,26.70,26.70,43.20,29.61,9.976,
01/01/2000,00:00:42.41,-331.54,-82.03,965.82,0.22,0.87,1.30,27.0,26.40,42.75,29.80,9.976,
01/01/2000,00:00:42.51,-315.43,-86.91,947.27,1.04,1.85,-1.41,28.80,24.90,43.05,29.80,9.976,
01/01/2000,00:00:42.62,-328.13,-76.66,942.38,0.24,-0.95,0.15,27.15,26.70,42.15,29.66,9.976,
01/01/2000,00:00:42.72,-332.52,-83.50,957.52,-1.35,1.72,-0.01,27.0,26.40,41.55,29.66,9.976,
01/01/2000,00:00:42.82,-323.24,-86.43,950.20,0.69,2.19,0.15,26.55,24.90,41.55,29.90,9.976,
01/01/2000,00:00:42.92,-326.17,-90.33,947.75,0.52,2.24,-0.85,27.15,26.25,43.20,29.75,9.976,
01/01/2000,00:00:43.02,-327.64,-82.52,949.22,-0.27,2.27,-0.71,27.30,26.10,42.75,29.80,9.976,
01/01/2000,00:00:43.12,-314.94,-88.38,949.22,1.74,0.78,1.18,26.70,26.70,41.85,29.95,9.976,
01/01/2000,00:00:43.22,-315.43,-86.91,943.85,-2.34,0.11,-3.36,25.80,26.10,42.30,29.80,9.976,
01/01/2000,00:00:43.32,-318.85,-91.31,962.40,1.49,0.27,0.31,26.70,26.70,43.95,30.14,9.976,
01/01/2000,00:00:43.42,-312.50,-83.50,961.43,-0.55,1.37,-2.28,26.55,26.40,42.30,29.47,9.976,
01/01/2000,00:00:43.52,-319.34,-89.84,945.80,-0.76,1.73,-0.64,25.50,26.40,40.50,29.90,9.976,
01/01/2000,00:00:43.62,-325.20,-84.96,949.22,1.06,1.07,-0.40,27.0,26.40,42.75,29.66,9.976,
01/01/2000,00:00:43.72,-324.71,-84.47,953.13,-0.79,1.83,0.85,27.15,26.70,41.85,29.61,9.976,
01/01/2000,00:00:43.82,-334.47,-83.98,950.20,0.56,0.85,-5.28,28.20,25.50,42.90,29.80,9.976,
01/01/2000,00:00:43.92,-319.34,-78.61,945.31,-1.02,-1.62,2.53,29.40,27.0,42.45,29.66,9.977,
01/01/2000,00:00:44.02,-319.34,-80.57,948.24,-0.63,0.99,-1.02,29.40,26.70,42.45,29.61,9.977,
01/01/2000,00:00:44.12,-325.20,-85.45,945.80,-0.55,0.05,0.66,26.25,26.85,42.0,29.56,9.974,
01/01/2000,00:00:44.22,-315.43,-79.59,947.75,-0.05,4.45,-2.08,27.0,24.60,41.55,29.66,9.974,
01/01/2000,00:00:44.32,-312.99,-82.52,949.71,-0.22,-0.39,-1.37,27.0,24.90,41.25,29.95,9.974,
01/01/2000,00:00:44.42,-321.29,-88.38,946.29,-1.64,1.31,-1.47,27.90,24.75,42.90,29.66,9.974,
01/01/2000,00:00:44.52,-323.24,-75.20,956.05,-0.37,3.07,-1.42,27.15,25.80,43.65,29.95,9.975,
01/01/2000,00:00:44.63,-318.85,-92.77,941.41,-0.95,1.98,0.56,26.55,25.35,41.55,29.80,9.975,
01/01/2000,00:00:44.73,-317.87,-84.96,943.36,0.14,3.52,1.44,27.45,25.80,42.90,29.90,9.975,
01/01/2000,00:00:44.83,-318.36,-83.98,963.87,-0.01,2.96,-0.61,28.20,25.80,42.90,29.80,9.975,
01/01/2000,00:00:44.93,-312.50,-94.24,961.91,0.54,3.42,-1.74,28.05,27.15,43.05,29.95,9.975,
01/01/2000,00:00:45.03,-315.92,-69.34,954.10,-0.98,0.34,-0.32,25.65,26.70,43.20,29.47,9.975,
01/01/2000,00:00:45.13,-302.73,-99.12,959.96,-0.88,2.02,-2.69,27.15,27.45,43.20,29.61,9.975,
01/01/2000,00:00:45.23,-317.38,-73.73,950.68,-1.01,2.55,-0.82,27.75,26.85,42.30,29.95,9.975,
01/01/2000,00:00:45.33,-317.87,-80.57,953.61,-0.31,2.52,-3.38,27.30,26.40,43.50,29.75,9.975,
01/01/2000,00:00:45.43,-331.05,-97.66,951.66,1.18,2.91,-0.89,29.40,24.0,42.90,29.90,9.975,
01/01/2000,00:00:45.53,-331.05,-83.98,950.20,-1.15,2.84,-3.50,28.05,24.15,43.80,29.75,9.975,
01/01/2000,00:00:45.63,-314.94,-92.29,958.01,1.38,3.76,-0.48,28.05,25.65,42.75,29.95,9.975,
01/01/2000,00:00:45.73,-321.78,-84.47,946.78,-1.08,0.59,-2.99,28.05,25.35,43.80,29.75,9.975,
01/01/2000,00:00:45.83,-319.82,-84.47,961.91,-0.82,2.37,0.14,27.30,25.65,42.75,29.80,9.975,
01/01/2000,00:00:45.93,-321.78,-85.94,955.08,0.30,1.81,0.23,27.15,26.70,43.65,29.90,9.975,
01/01/2000,00:00:46.03,-322.27,-88.87,948.24,-0.80,0.10,-1.40,26.55,25.65,42.30,29.80,9.973,
01/01/2000,00:00:46.13,-330.57,-88.38,953.13,-2.01,-1.01,0.64,28.20,27.45,42.45,29.95,9.973,
01/01/2000,00:00:46.23,-315.43,-89.36,948.24,1.53,1.44,-1.11,29.25,26.10,43.05,29.66,9.973,
01/01/2000,00:00:46.33,-314.45,-70.80,949.22,-1.67,2.37,-2.20,28.65,27.0,42.45,29.66,9.973,
01/01/2000,00:00:46.44,-317.87,-83.50,946.78,0.42,1.09,1.60,27.75,25.35,43.05,29.80,9.973,
01/01/2000,00:00:46.54,-317.87,-85.94,961.91,-0.75,2.32,-3.20,27.90,26.70,41.85,29.61,9.973,
01/01/2000,00:00:46.64,-317.38,-84.47,950.20,-0.62,1.18,-0.73,27.30,25.65,43.05,29.90,9.974,
01/01/2000,00:00:46.74,-330.08,-91.31,950.20,6.96,3.15,0.49,27.30,25.65,42.30,29.61,9.974,
01/01/2000,00:00:46.84,-319.82,-72.27,921.39,-0.91,2.26,-0.51,27.45,26.70,42.15,29.99,9.974,
01/01/2000,00:00:46.94,-321.78,-64.45,941.41,0.46,0.89,-0.14,27.75,26.85,42.30,30.09,9.974,
01/01/2000,00:00:47.04,-323.73,-64.45,938.48,-0.38,-0.80,2.94,28.95,25.80,41.85,29.95,9.974,
01/01/2000,00:00:47.14,-308.59,-75.20,952.64,-2.40,1.09,-2.24,27.90,27.45,43.65,29.95,9.974,
01/01/2000,00:00:47.24,-309.57,-79.59,948.24,1.35,0.61,0.04,26.70,27.75,43.20,29.66,9.974,
01/01/2000,00:00:47.34,-328.61,-75.68,951.17,2.13,0.57,0.66,27.0,26.85,41.55,29.90,9.974,
01/01/2000,00:00:47.44,-325.20,-59.57,949.71,-0.81,1.78,-1.08,27.75,25.65,42.30,29.61,9.974,
01/01/2000,00:00:47.54,-329.59,-74.71,940.43,2.33,4.13,2.30,27.0,26.40,41.25,29.95,9.974,
01/01/2000,00:00:47.64,-327.64,-83.98,953.13,0.89,0.05,-0.51,26.25,27.15,42.75,29.66,9.974,
01/01/2000,00:00:47.74,-322.27,-85.94,952.64,-0.82,0.94,0.83,28.50,26.10,42.30,29.80,9.974,
01/01/2000,00:00:47.84,-318.36,-82.03,955.57,-0.63,1.19,-2.22,27.45,26.70,43.20,29.95,9.974,
01/01/2000,00:00:47.94,-321.29,-86.43,948.73,-2.08,1.62,-0.34,27.75,27.15,43.50,29.95,9.972,
01/01/2000,00:00:48.04,-312.50,-69.34,959.96,-1.44,1.32,-3.02,26.25,28.05,40.95,30.09,9.972,
01/01/2000,00:00:48.14,-328.61,-78.61,945.31,-0.36,0.52,-1.47,27.90,27.45,41.40,29.95,9.972,
01/01/2000,00:00:48.24,-326.66,-72.27,947.75,0.01,1.05,-1.76,26.40,25.50,42.45,29.61,9.972,
01/01/2000,00:00:48.35,-324.22,-74.22,946.78,1.04,3.03,-0.15,28.80,27.60,43.05,29.90,9.972,
01/01/2000,00:00:48.45,-323.24,-76.66,950.68,-1.24,3.06,-1.85,27.0,26.40,42.75,29.99,9.972,
01/01/2000,00:00:48.55,-319.34,-70.31,956.05,0.41,-0.15,0.41,28.50,26.10,43.05,29.80,9.972,
01/01/2000,00:00:48.65,-320.80,-66.89,947.75,-1.05,3.36,-1.11,28.20,27.75,42.45,29.80,9.973,
01/01/2000,00:00:48.75,-325.20,-81.54,942.87,0.91,0.26,-1.96,26.70,26.70,42.45,29.75,9.973,
01/01/2000,00:00:48.85,-316.89,-70.80,953.61,0.22,1.73,-1.92,27.30,27.15,42.0,29.47,9.973,
01/01/2000,00:00:48.95,-334.96,-76.17,954.59,1.39,-0.45,0.02,25.95,24.75,41.40,29.95,9.973,
01/01/2000,00:00:49.05,-319.82,-68.85,941.89,0.82,-0.58,1.59,27.75,27.15,42.75,29.80,9.973,
01/01/2000,00:00:49.15,-321.78,-78.61,954.59,-1.28,1.60,-2.56,28.65,27.75,43.20,29.99,9.973,
01/01/2000,00:00:49.25,-318.36,-83.98,943.36,1.35,1.76,1.60,27.15,26.25,42.90,29.95,9.973,
01/01/2000,00:00:49.35,-330.08,-83.98,953.13,0.44,1.33,1.73,26.70,26.70,42.15,29.80,9.973,
01/01/2000,00:00:49.45,-314.45,-78.61,942.87,0.31,1.34,1.57,26.40,26.25,43.95,29.75,9.973,
01/01/2000,00:00:49.55,-323.24,-79.10,950.20,-0.37,2.14,-1.08,27.45,25.80,42.15,29.95,9.973,
01/01/2000,00:00:49.65,-325.20,-77.15,952.15,0.73,1.87,1.75,25.95,25.50,42.15,29.99,9.973,
01/01/2000,00:00:49.75,-316.89,-85.45,947.27,-1.11,2.37,0.51,28.50,24.15,42.0,29.95,9.973,
01/01/2000,00:00:49.85,-328.13,-73.73,950.20,13.85,4.21,1.21,26.70,26.70,42.15,29.75,9.973,
01/01/2000,00:00:49.95,-325.68,-91.31,970.70,-1.70,1.78,-1.26,28.05,27.60,41.25,29.80,9.971,
01/01/2000,00:00:50.05,-318.85,-77.15,959.47,-0.79,0.62,-0.82,27.75,26.40,42.75,30.09,9.971,
01/01/2000,00:00:50.15,-329.10,-76.17,953.13,-0.34,0.41,-0.43,28.05,26.10,43.50,29.66,9.971,
01/01/2000,00:00:50.25,-313.96,-77.64,944.34,-1.52,2.97,-0.95,28.20,26.70,41.85,29.80,9.971,
01/01/2000,00:00:50.36,-325.68,-72.75,948.73,0.31,-0.73,2.29,27.75,26.10,42.30,29.95,9.971,
01/01/2000,00:00:50.46,-320.80,-70.80,953.13,0.09,2.50,-0.98,28.65,26.70,43.95,29.95,9.972,
01/01/2000,00:00:50.56,-323.24,-77.64,955.08,0.49,-0.83,0.82,25.50,26.85,43.05,29.56,9.972,
01/01/2000,00:00:50.66,-332.03,-76.66,944.34,1.10,-0.87,1.51,28.05,27.15,42.30,29.95,9.972,
01/01/2000,00:00:50.76,-318.85,-81.54,955.08,1.66,0.42,1.26,26.25,26.85,42.30,29.95,9.972,
01/01/2000,00:00:50.86,-318.36,-75.20,955.57,-0.18,4.11,-0.08,27.0,26.40,42.75,29.99,9.972,
01/01/2000,00:00:50.96,-328.13,-76.17,947.27,0.83,1.50,-1.33,27.45,27.75,42.45,29.95,9.972,
01/01/2000,00:00:51.06,-327.15,-73.73,940.92,-0.92,0.66,0.78,26.70,25.05,43.65,29.95,9.972,
01/01/2000,00:00:51.16,-316.89,-70.31,954.10,-1.70,2.82,-1.29,27.45,26.70,42.15,29.66,9.972,
01/01/2000,00:00:51.26,-330.08,-68.85,951.17,-0.29,0.90,1.57,27.15,26.25,42.90,29.95,9.972,
01/01/2000,00:00:51.36,-322.27,-73.24,944.82,1.53,2.11,-0.71,27.90,25.80,41.40,29.66,9.972,
01/01/2000,00:00:51.46,-323.24,-73.24,962.40,1.51,3.66,-1.37,27.15,26.70,42.45,29.90,9.972,
01/01/2000,00:00:51.56,-326.66,-65.43,950.68,-1.89,3.98,-1.12,27.75,27.60,41.55,29.80,9.972,
01/01/2000,00:00:51.66,-326.17,-78.13,952.15,0.18,-0.40,-2.20,25.20,27.45,42.45,29.99,9.972,
01/01/2000,00:00:51.76,-322.75,-83.50,941.89,0.54,1.53,-3.13,27.45,25.50,42.15,29.90,9.970,
01/01/2000,00:00:51.86,-315.92,-75.68,949.71,-0.77,1.0,2.24,28.05,26.85,42.75,29.80,9.970,
01/01/2000,00:00:51.96,-303.71,-81.05,952.15,0.28,1.05,-0.31,27.45,27.45,42.90,29.95,9.970,
01/01/2000,00:00:52.06,-320.80,-77.15,947.27,2.84,1.78,-2.87,27.15,26.25,41.10,29.80,9.970,
01/01/2000,00:00:52.17,-314.94,-78.13,951.17,2.89,0.11,1.96,28.20,25.80,41.85,29.95,9.971,
01/01/2000,00:00:52.27,-318.85,-88.87,977.05,-0.74,1.01,1.23,27.15,25.80,41.85,29.66,9.971,
01/01/2000,00:00:52.37,-321.78,-76.17,958.01,2.23,2.17,-4.41,27.30,27.15,44.10,30.09,9.971,
01/01/2000,00:00:52.47,-327.64,-70.80,951.17,-0.79,2.93,0.05,26.55,26.10,42.30,29.99,9.971,
01/01/2000,00:00:52.57,-321.78,-71.78,940.92,0.04,1.70,0.76,27.45,25.80,43.65,29.80,9.971,
01/01/2000,00:00:52.67,-328.13,-66.89,956.54,-0.39,-0.71,-0.11,26.40,26.70,41.40,29.75,9.971,
01/01/2000,00:00:52.77,-322.27,-68.36,947.27,0.54,-0.05,-0.15,28.05,27.15,43.80,29.80,9.971,
01/01/2000,00:00:52.87,-328.61,-70.31,932.62,0.86,4.37,-0.79,27.75,25.65,43.05,29.75,9.971,
01/01/2000,00:00:52.97,-327.64,-79.10,950.20,-3.06,2.44,-2.31,27.15,27.0,43.65,29.80,9.971,
01/01/2000,00:00:53.07,-307.13,-77.15,941.41,0.87,2.27,0.82,26.55,27.15,43.05,29.80,9.971,
01/01/2000,00:00:53.17,-305.66,-75.20,951.17,-0.59,2.39,-0.34,28.20,26.70,41.85,29.90,9.971,
01/01/2000,00:00:53.27,-317.38,-80.57,952.15,0.67,1.65,0.84,28.65,26.70,42.90,29.95,9.971,
01/01/2000,00:00:53.37,-309.08,-64.45,935.06,1.02,1.11,-1.64,27.15,27.45,42.45,30.19,9.971,
01/01/2000,00:00:53.47,-333.50,-78.13,964.84,0.64,0.74,-0.27,27.0,25.35,42.30,30.09,9.971,
01/01/2000,00:00:53.57,-315.43,-67.38,947.27,1.42,-0.28,1.56,27.0,25.65,42.75,29.80,9.971,
01/01/2000,00:00:53.67,-330.57,-83.50,936.52,0.47,7.20,-1.05,27.30,24.90,43.05,29.80,9.971,
01/01/2000,00:00:53.77,-322.75,-79.59,960.45,0.79,4.02,-3.16,27.45,27.0,41.10,29.80,9.970,
01/01/2000,00:00:53.87,-314.94,-68.36,962.89,-0.42,2.11,0.66,26.40,27.0,43.20,29.95,9.970,
01/01/2000,00:00:53.97,-313.96,-72.27,953.61,-1.77,-0.29,-2.59,26.55,25.65,42.30,29.80,9.970,
01/01/2000,00:00:54.07,-318.85,-82.03,958.50,-2.21,2.20,-3.53,27.0,26.40,41.55,29.99,9.970,
01/01/2000,00:00:54.18,-326.17,-87.40,955.57,-2.18,4.73,0.11,27.0,27.60,42.0,29.95,9.970,
01/01/2000,00:00:54.28,-328.13,-86.91,953.61,0.11,3.53,-0.69,28.65,27.0,41.40,29.99,9.970,
01/01/2000,00:00:54.38,-320.31,-81.54,943.85,0.40,2.75,1.08,26.70,26.70,41.85,29.90,9.970,
01/01/2000,00:00:54.48,-321.29,-67.38,952.15,-0.74,1.45,0.24,26.55,26.40,42.0,29.95,9.970,
01/01/2000,00:00:54.58,-329.59,-73.24,950.20,-1.48,1.88,-1.73,28.50,27.15,42.0,29.80,9.970,
01/01/2000,00:00:54.68,-317.38,-76.17,947.75,-0.61,0.49,3.37,27.45,27.45,43.65,29.80,9.970,
01/01/2000,00:00:54.78,-327.15,-75.20,957.03,-0.65,3.41,-2.06,28.05,26.10,42.0,29.95,9.970,
01/01/2000,00:00:54.88,-319.34,-79.59,946.78,-0.92,0.36,0.85,28.05,26.10,42.0,29.80,9.970,
01/01/2000,00:00:54.98,-324.71,-61.52,952.64,0.03,1.42,0.68,27.0,26.85,42.0,29.95,9.970,
01/01/2000,00:00:55.08,-325.20,-82.52,948.24,-1.58,-0.40,-2.27,28.50,26.40,42.30,29.99,9.970,
01/01/2000,00:00:55.18,-309.57,-84.47,943.36,-0.71,0.13,0.29,27.45,27.0,41.40,29.99,9.970,
01/01/2000,00:00:55.28,-313.48,-94.24,956.05,1.84,0.89,-1.40,28.20,25.80,42.15,30.09,9.970,
01/01/2000,00:00:55.38,-331.05,-69.34,965.82,1.60,1.75,-0.07,27.75,26.40,43.05,29.56,9.970,
01/01/2000,00:00:55.48,-323.24,-76.66,953.61,-1.67,2.35,-3.17,28.05,27.60,42.0,29.90,9.970,
01/01/2000,00:00:55.58,-324.71,-79.10,943.85,-0.87,3.86,0.81,26.55,26.85,43.80,30.33,9.971,
01/01/2000,00:00:55.68,-317.38,-61.52,945.80,-1.88,1.97,-3.66,27.15,26.25,41.85,29.95,9.969,
01/01/2000,00:00:55.78,-340.33,-85.94,958.98,1.63,1.86,0.23,27.45,25.50,42.15,29.80,9.969,
01/01/2000,00:00:55.88,-330.57,-78.61,944.82,-1.18,0.74,-1.13,27.15,27.45,42.15,29.95,9.969,
01/01/2000,00:00:55.98,-319.34,-77.15,948.73,-0.12,2.70,2.15,27.45,26.25,42.45,30.09,9.969,
01/01/2000,00:00:56.09,-321.78,-74.71,945.31,0.80,-0.77,0.71,26.40,26.25,42.90,29.61,9.969,
01/01/2000,00:00:56.19,-320.31,-76.66,942.87,-1.05,1.09,-2.18,27.45,26.25,42.45,30.14,9.969,
01/01/2000,00:00:56.29,-317.87,-72.75,946.78,-0.76,2.31,-1.23,27.75,27.60,41.55,29.90,9.969,
01/01/2000,00:00:56.39,-326.17,-79.10,958.50,-1.04,2.33,-4.34,27.75,26.85,42.30,29.95,9.969,
01/01/2000,00:00:56.49,-329.10,-77.64,953.13,-2.13,0.76,-1.24,26.55,26.85,41.55,29.99,9.969,
01/01/2000,00:00:56.59,-315.92,-71.29,949.71,-1.98,0.67,-2.07,27.30,26.85,43.80,30.09,9.969,
01/01/2000,00:00:56.69,-323.24,-84.96,947.75,0.56,0.51,-1.92,26.40,26.70,42.45,29.95,9.969,
01/01/2000,00:00:56.79,-321.29,-77.64,946.29,0.06,3.42,0.36,27.45,26.70,42.15,29.90,9.969,
01/01/2000,00:00:56.89,-324.71,-75.68,942.87,0.28,4.15,0.73,28.50,26.40,42.30,29.90,9.969,
01/01/2000,00:00:56.99,-327.15,-71.78,954.59,0.37,2.93,0.02,27.30,24.90,42.0,29.95,9.969,
01/01/2000,00:00:57.09,-323.24,-76.17,950.68,-1.34,2.48,0.91,26.70,26.70,42.45,29.75,9.970,
01/01/2000,00:00:57.19,-327.15,-78.61,945.31,-1.95,4.07,-3.65,28.50,24.90,43.05,29.90,9.970,
01/01/2000,00:00:57.29,-330.57,-74.22,954.10,-0.53,0.51,1.06,26.70,27.45,41.85,30.09,9.970,
01/01/2000,00:00:57.39,-325.68,-72.75,950.68,1.22,0.83,-0.28,27.90,27.75,42.15,29.75,9.970,
01/01/2000,00:00:57.49,-316.89,-76.17,951.66,-0.93,-0.24,-1.23,27.75,27.15,43.50,30.09,9.968,
01/01/2000,00:00:57.59,-319.34,-74.22,955.08,1.09,1.56,1.68,27.90,25.50,42.15,30.09,9.968,
01/01/2000,00:00:57.69,-328.13,-81.05,958.50,0.85,1.84,-1.41,26.25,26.85,43.05,30.28,9.968,
01/01/2000,00:00:57.79,-329.59,-78.13,961.43,-0.60,4.39,-0.64,28.65,27.45,41.40,29.99,9.968,
01/01/2000,00:00:57.90,-328.61,-78.13,956.54,0.89,1.29,0.11,26.70,26.25,41.40,29.99,9.968,
01/01/2000,00:00:58.00,-311.52,-68.36,953.61,-0.94,2.74,-2.76,28.50,26.85,43.05,29.95,9.968,
01/01/2000,00:00:58.10,-313.48,-79.10,950.20,1.56,3.19,-1.04,27.75,27.60,42.75,30.09,9.968,
01/01/2000,00:00:58.20,-313.48,-75.20,953.61,-0.79,3.93,-3.36,26.70,26.70,42.45,29.99,9.968,
01/01/2000,00:00:58.30,-317.87,-83.50,948.24,-0.15,1.23,0.65,27.30,26.40,42.75,29.90,9.968,
01/01/2000,00:00:58.40,-324.22,-64.94,942.87,-2.24,2.60,-3.08,27.15,25.05,42.90,29.75,9.968,
01/01/2000,00:00:58.50,-329.59,-80.08,958.98,-0.02,2.35,0.94,27.30,26.85,43.05,29.99,9.969,
01/01/2000,00:00:58.60,-324.22,-71.78,956.05,-0.23,1.94,-3.31,27.0,27.15,42.0,29.95,9.969,
01/01/2000,00:00:58.70,-324.22,-77.64,948.24,-2.01,1.02,1.07,28.05,25.65,43.05,29.95,9.969,
01/01/2000,00:00:58.80,-330.08,-75.68,958.50,-3.24,-0.50,-1.93,27.0,27.15,43.05,29.80,9.969,
01/01/2000,00:00:58.90,-322.75,-76.66,948.73,-0.49,2.10,-3.16,27.75,26.85,42.0,29.95,9.969,
01/01/2000,00:00:59.00,-330.57,-95.21,945.31,-2.31,4.18,-0.85,27.15,27.45,41.85,29.95,9.969,
01/01/2000,00:00:59.10,-328.13,-73.24,954.59,-0.60,1.73,-2.80,27.30,26.10,42.30,29.66,9.969,
01/01/2000,00:00:59.20,-321.78,-82.03,940.43,-1.32,3.33,-3.15,28.65,27.0,41.85,30.09,9.969,
01/01/2000,00:00:59.30,-306.15,-72.27,941.89,-1.65,1.82,0.11,27.30,28.05,43.50,29.95,9.969,
01/01/2000,00:00:59.40,-314.45,-80.57,936.04,-1.02,1.96,-0.75,28.95,26.70,42.15,29.95,9.969,
01/01/2000,00:00:59.50,-329.59,-71.78,946.78,0.73,1.44,1.19,28.20,27.45,42.45,29.80,9.967,
01/01/2000,00:00:59.60,-334.96,-77.15,950.20,0.13,2.95,1.08,28.20,27.45,41.10,29.95,9.967,
01/01/2000,00:00:59.70,-329.59,-79.59,941.89,-2.15,2.34,-2.76,27.90,28.20,42.45,29.90,9.967,
01/01/2000,00:00:59.80,-322.75,-70.31,945.80,-1.76,3.73,-2.21,27.75,26.40,43.05,30.09,9.968,
01/01/2000,00:00:59.91,-320.31,-84.96,941.41,-0.35,2.91,-2.95,26.25,26.85,42.30,29.80,9.968,
01/01/2000,00:01:00.01,-333.01,-83.98,961.43,-0.30,3.24,-0.38,28.20,26.70,41.85,29.80,9.968,
01/01/2000,00:01:00.11,-341.80,-77.64,967.29,-0.21,-0.05,1.37,28.05,26.40,43.50,30.09,9.968,
01/01/2000,00:01:00.21,-325.68,-72.27,957.03,0.76,0.41,-0.73,27.75,26.10,42.0,29.95,9.968,
01/01/2000,00:01:00.31,-314.94,-78.61,953.13,-1.39,3.76,-1.70,27.75,27.15,42.0,29.80,9.968,
01/01/2000,00:01:00.41,-325.20,-69.82,954.59,0.56,2.50,-1.30,27.75,25.35,42.30,30.33,9.968,
01/01/2000,00:01:00.51,-330.08,-76.66,936.04,-0.83,2.64,-2.66,26.40,26.70,42.15,29.66,9.968,
01/01/2000,00:01:00.61,-325.20,-76.66,958.98,-0.14,2.25,-2.05,27.15,27.0,43.65,30.09,9.968,
01/01/2000,00:01:00.71,-322.27,-75.68,941.89,0.70,1.11,0.18,27.30,26.85,41.55,30.19,9.968,
01/01/2000,00:01:00.81,-313.48,-82.52,953.61,0.27,2.56,-1.94,27.30,26.10,43.80,29.99,9.968,
01/01/2000,00:01:00.91,-315.43,-77.64,938.96,0.19,0.83,-2.29,27.0,26.10,42.75,30.09,9.968,
01/01/2000,00:01:01.01,-329.10,-81.05,953.13,-1.68,1.63,-0.63,26.55,26.40,42.0,30.09,9.968,
01/01/2000,00:01:01.11,-299.80,-80.08,952.15,0.05,2.20,-1.48,26.25,26.40,42.0,29.90,9.968,
01/01/2000,00:01:01.21,-328.13,-73.24,970.70,1.11,1.69,-0.29,27.15,24.75,42.90,29.61,9.968,
01/01/2000,00:01:01.31,-308.11,-84.96,948.24,-2.04,3.48,-1.40,27.0,26.40,42.0,29.99,9.968,
01/01/2000,00:01:01.41,-340.33,-87.40,951.17,0.85,5.31,0.49,26.55,27.15,43.05,29.66,9.967,
01/01/2000,00:01:01.51,-290.53,-59.57,933.11,0.35,2.97,-3.24,27.15,25.80,43.20,29.99,9.967,
01/01/2000,00:01:01.61,-328.13,-58.59,937.99,0.34,3.12,0.53,27.15,27.75,43.20,29.95,9.967,
01/01/2000,00:01:01.71,-311.52,-67.87,953.61,-2.62,1.90,0.08,27.45,27.45,41.40,29.90,9.967,
01/01/2000,00:01:01.82,-338.38,-75.20,952.64,-0.60,1.81,0.20,26.40,25.50,42.45,29.99,9.967,
01/01/2000,00:01:01.92,-324.22,-73.73,955.08,-0.41,3.51,0.72,28.95,25.50,43.65,29.95,9.967,
01/01/2000,00:01:02.02,-327.64,-81.54,954.59,-1.50,-1.47,0.34,27.90,26.70,42.15,30.14,9.967,
01/01/2000,00:01:02.12,-333.98,-79.59,955.57,0.66,1.44,-0.23,28.20,27.45,42.90,30.09,9.967,
01/01/2000,00:01:02.22,-321.29,-83.50,948.73,0.38,3.63,-1.97,26.70,26.70,41.85,29.80,9.967,
01/01/2000,00:01:02.32,-336.43,-80.08,953.61,0.93,2.50,0.34,26.70,26.70,41.40,29.80,9.967,
01/01/2000,00:01:02.42,-311.04,-86.91,954.59,-1.79,2.37,-3.04,28.05,26.10,41.55,29.99,9.967,
01/01/2000,00:01:02.52,-326.17,-83.01,956.54,1.33,0.30,0.84,27.75,27.15,42.75,29.90,9.967,
01/01/2000,00:01:02.62,-312.99,-75.20,937.01,-2.14,0.58,-1.40,27.90,25.05,42.15,30.28,9.967,
01/01/2000,00:01:02.72,-325.20,-72.27,949.71,0.71,-1.39,-0.11,27.75,27.60,43.05,29.80,9.967,
01/01/2000,00:01:02.82,-330.57,-75.20,950.20,-0.21,2.86,3.29,28.50,25.65,42.75,29.90,9.967,
01/01/2000,00:01:02.92,-318.36,-79.10,951.17,0.63,1.61,-2.02,27.30,28.05,42.0,30.28,9.968,
01/01/2000,00:01:03.02,-332.03,-82.03,958.50,-2.58,1.88,-3.78,27.0,27.60,43.05,29.95,9.968,
01/01/2000,00:01:03.12,-326.66,-73.73,962.89,0.87,-1.12,0.61,27.30,26.40,43.05,30.09,9.968,
01/01/2000,00:01:03.22,-325.68,-73.73,947.27,-0.88,0.63,1.15,27.15,25.80,42.45,30.14,9.966,
01/01/2000,00:01:03.32,-310.06,-70.80,950.20,-0.92,-0.33,0.23,28.05,26.40,42.0,29.80,9.966,
01/01/2000,00:01:03.42,-316.89,-62.99,946.78,-1.06,3.29,0.24,26.25,24.90,42.30,30.33,9.966,
01/01/2000,00:01:03.52,-316.89,-75.68,949.71,-0.96,2.07,-2.57,27.30,26.85,42.0,29.66,9.966,
01/01/2000,00:01:03.62,-335.45,-76.17,968.26,-1.45,1.04,-1.63,28.05,26.10,42.30,30.28,9.966,
01/01/2000,00:01:03.73,-323.73,-82.03,949.71,1.24,0.26,1.40,26.40,26.70,42.15,30.09,9.966,
01/01/2000,00:01:03.83,-323.24,-78.13,956.05,0.55,2.72,0.60,28.05,27.15,43.05,30.09,9.966,
01/01/2000,00:01:03.93,-295.41,-73.24,934.57,2.31,1.20,1.59,27.45,25.80,42.90,29.99,9.966,
01/01/2000,00:01:04.03,-318.85,-65.92,944.34,-0.73,0.10,-1.95,27.15,27.45,41.85,29.95,9.967,
01/01/2000,00:01:04.13,-326.66,-72.27,956.05,-0.06,3.14,-2.94,27.30,26.10,43.05,30.09,9.967,
01/01/2000,00:01:04.23,-333.98,-73.73,948.24,-0.41,1.69,-0.21,27.75,27.60,42.30,29.95,9.967,
01/01/2000,00:01:04.33,-340.33,-78.61,952.64,-0.09,-0.07,-1.58,26.40,28.20,43.95,29.99,9.967,
01/01/2000,00:01:04.43,-324.22,-74.22,944.34,-0.69,4.06,-1.37,27.75,28.05,42.30,29.95,9.967,
01/01/2000,00:01:04.53,-323.73,-78.61,945.80,-1.94,1.68,2.24,26.25,27.60,43.80,29.99,9.967,
01/01/2000,00:01:04.63,-332.03,-62.99,953.13,-2.55,1.05,-0.10,25.95,25.80,43.20,29.90,9.967,
01/01/2000,00:01:04.73,-320.31,-85.45,956.05,-1.97,1.87,-0.98,27.75,25.65,42.0,30.09,9.967,
01/01/2000,00:01:04.83,-318.36,-83.01,911.62,8.50,6.24,1.11,26.70,27.0,43.20,29.95,9.967,
01/01/2000,00:01:04.93,-324.22,-88.38,954.59,1.79,0.24,1.86,27.15,27.0,42.90,29.80,9.967,
01/01/2000,00:01:05.03,-330.08,-69.82,961.43,0.65,2.67,-0.83,28.50,26.40,43.50,30.09,9.967,
01/01/2000,00:01:05.13,-333.50,-82.52,957.52,-0.44,2.30,-2.50,28.20,26.70,42.15,29.95,9.966,
01/01/2000,00:01:05.23,-321.78,-69.82,946.78,-2.12,0.70,-1.16,27.30,28.35,43.50,29.80,9.966,
01/01/2000,00:01:05.33,-319.82,-78.13,953.13,-1.34,3.66,-1.60,27.15,26.25,41.85,30.14,9.966,
01/01/2000,00:01:05.43,-325.68,-72.75,947.75,0.30,0.75,-1.76,25.95,27.45,43.20,29.95,9.966,
01/01/2000,00:01:05.54,-322.75,-62.99,942.87,1.51,1.37,0.94,27.30,27.15,43.80,29.99,9.966,
01/01/2000,00:01:05.64,-325.68,-79.10,959.96,-0.98,0.98,0.45,26.25,25.65,41.55,30.09,9.966,
01/01/2000,00:01:05.74,-320.80,-82.52,955.08,-1.85,0.09,-1.26,28.80,24.90,42.0,29.80,9.966,
01/01/2000,00:01:05.84,-316.41,-69.34,940.92,-1.67,0.18,-1.06,27.15,27.0,42.45,30.09,9.966,
01/01/2000,00:01:05.94,-311.52,-79.59,949.22,0.67,2.11,0.52,26.55,26.40,43.50,30.09,9.966,
01/01/2000,00:01:06.04,-325.68,-76.17,951.66,-0.87,-0.33,1.81,27.30,26.40,42.30,30.09,9.966,
01/01/2000,00:01:06.14,-330.57,-66.41,939.94,-0.88,-1.0,-1.56,27.45,27.0,42.90,29.99,9.966,
01/01/2000,00:01:06.24,-313.96,-82.52,951.17,-0.19,1.57,-1.67,27.75,27.15,43.05,30.09,9.966,
01/01/2000,00:01:06.34,-328.13,-83.50,947.27,-1.28,1.57,-2.08,27.75,26.85,42.75,29.75,9.966,
01/01/2000,00:01:06.44,-330.57,-94.73,954.59,-1.11,1.97,-1.13,26.55,26.85,43.05,30.09,9.966,
01/01/2000,00:01:06.54,-310.55,-94.24,966.80,3.54,1.83,0.34,27.30,26.40,42.0,29.90,9.966,
01/01/2000,00:01:06.64,-320.80,-75.68,957.03,-0.90,0.69,0.05,27.15,27.45,43.20,29.80,9.966,
01/01/2000,00:01:06.74,-324.71,-79.59,971.68,0.83,1.53,-1.58,28.05,25.65,43.50,30.09,9.966,
01/01/2000,00:01:06.84,-320.80,-87.89,935.06,1.24,2.01,0.60,27.30,25.65,41.55,29.99,9.966,
01/01/2000,00:01:06.94,-324.71,-84.96,936.04,2.05,1.79,1.14,26.70,25.50,42.90,29.99,9.966,
01/01/2000,00:01:07.04,-310.55,-87.89,937.50,1.14,1.11,0.20,27.90,25.05,41.85,30.14,9.967,
01/01/2000,00:01:07.14,-345.21,-94.24,967.29,-6.74,2.15,2.19,27.15,27.0,43.65,30.28,9.965,
01/01/2000,00:01:07.24,-333.01,-86.91,966.80,6.18,2.65,2.70,27.0,27.15,42.0,29.80,9.965,
01/01/2000,00:01:07.34,-328.13,-77.64,966.80,0.80,2.02,2.64,27.30,26.40,41.55,30.09,9.965,
01/01/2000,00:01:07.45,-327.15,-71.78,951.17,-1.44,2.60,1.77,28.20,26.25,42.15,29.95,9.965,
01/01/2000,00:01:07.55,-331.05,-63.48,950.20,0.06,1.37,-1.44,28.05,25.65,43.05,30.14,9.965,
01/01/2000,00:01:07.65,-320.31,-65.92,955.57,0.41,1.90,-0.47,27.15,26.70,44.40,29.90,9.965,
01/01/2000,00:01:07.75,-324.71,-70.80,947.27,-0.57,4.56,-0.37,28.20,27.45,43.20,30.47,9.965,
01/01/2000,00:01:07.85,-308.59,-76.17,945.80,-0.28,0.63,-0.41,26.55,26.10,42.0,30.33,9.965,
01/01/2000,00:01:07.95,-328.61,-67.87,947.27,-0.68,3.53,-1.12,27.30,26.40,42.30,29.99,9.965,
01/01/2000,00:01:08.05,-331.05,-74.71,957.52,-2.66,3.60,-3.08,26.25,28.05,42.30,30.28,9.966,
01/01/2000,00:01:08.15,-323.73,-69.82,945.80,1.53,0.79,1.32,27.90,27.0,43.65,30.09,9.966,
01/01/2000,00:01:08.25,-322.75,-84.96,954.10,0.69,3.90,-0.27,25.65,27.75,42.90,30.09,9.966,
01/01/2000,00:01:08.35,-333.50,-77.15,950.20,0.79,0.39,0.13,28.20,26.70,42.45,29.90,9.966,
01/01/2000,00:01:08.45,-322.75,-80.57,950.68,-1.22,1.80,-4.24,27.30,27.60,43.50,29.95,9.966,
01/01/2000,00:01:08.55,-321.29,-77.15,952.15,-1.17,0.16,1.14,28.65,27.75,42.15,29.99,9.966,
01/01/2000,00:01:08.65,-318.36,-83.50,951.17,-0.69,0.79,-1.01,27.0,27.15,41.25,29.95,9.966,
01/01/2000,00:01:08.75,-316.89,-64.45,951.66,-1.79,2.28,-0.79,27.15,24.75,43.20,29.66,9.966,
01/01/2000,00:01:08.85,-336.43,-74.22,952.15,-0.03,0.44,-0.92,28.05,26.85,42.75,30.09,9.966,
01/01/2000,00:01:08.95,-314.94,-83.98,958.98,-1.24,2.91,-1.54,25.80,27.60,44.10,30.14,9.965,
01/01/2000,00:01:09.05,-316.41,-70.80,955.57,-2.76,2.08,-2.64,25.95,25.50,42.45,30.09,9.965,
01/01/2000,00:01:09.15,-325.20,-84.47,957.52,0.74,-1.14,0.51,27.75,25.35,43.05,29.99,9.965,
01/01/2000,00:01:09.25,-305.18,-72.75,939.45,-0.89,2.65,-2.93,26.70,26.70,42.15,30.28,9.965,
01/01/2000,00:01:09.35,-316.89,-55.66,991.70,-0.98,0.70,-0.82,27.90,27.0,42.90,29.99,9.965,
01/01/2000,00:01:09.46,-332.52,-76.66,975.59,5.53,3.0,0.64,26.40,27.0,42.90,29.80,9.965,
01/01/2000,00:01:09.56,-325.68,-72.27,962.40,1.59,1.51,-0.36,27.45,26.70,42.90,29.95,9.965,
01/01/2000,00:01:09.66,-324.22,-69.34,945.31,0.98,0.68,-0.81,27.30,28.05,42.75,30.33,9.965,
01/01/2000,00:01:09.76,-330.08,-80.08,945.80,-0.13,2.37,0.14,26.40,27.0,42.15,30.14,9.965,
01/01/2000,00:01:09.86,-319.82,-81.54,954.59,0.58,1.95,0.40,27.30,25.65,43.05,29.99,9.965,
01/01/2000,00:01:09.96,-320.31,-77.15,954.10,-0.64,0.97,-1.81,27.90,27.0,41.85,30.28,9.965,
01/01/2000,00:01:10.06,-312.50,-84.47,946.78,0.82,2.44,-0.33,27.15,27.0,43.20,30.33,9.965,
01/01/2000,00:01:10.16,-321.29,-77.15,950.68,-0.01,2.64,-0.23,26.70,26.25,42.15,30.09,9.965,
01/01/2000,00:01:10.26,-331.05,-69.82,943.85,-2.15,2.72,-0.99,28.50,28.05,43.50,30.09,9.965,
01/01/2000,00:01:10.36,-333.98,-80.57,959.47,-0.12,0.44,-2.08,27.0,27.60,42.30,29.95,9.965,
01/01/2000,00:01:10.46,-323.73,-83.98,951.17,-1.04,1.39,-0.76,27.15,27.0,42.90,30.14,9.965,
01/01/2000,00:01:10.56,-316.89,-70.31,954.59,-0.26,0.97,0.18,28.05,26.10,42.75,30.28,9.965,
01/01/2000,00:01:10.66,-327.64,-77.64,954.59,1.98,2.83,0.69,27.15,27.45,41.40,30.09,9.965,
01/01/2000,00:01:10.76,-316.89,-65.43,948.73,0.31,2.92,1.95,27.45,25.50,41.85,29.90,9.964,
01/01/2000,00:01:10.86,-317.38,-75.20,960.45,-2.34,4.62,0.80,28.05,25.35,43.80,29.99,9.964,
01/01/2000,00:01:10.96,-323.73,-76.66,939.94,-1.02,1.89,-0.65,28.20,27.0,43.20,29.80,9.964,
01/01/2000,00:01:11.06,-312.99,-72.27,939.45,-0.14,2.06,1.23,26.70,27.0,41.85,30.28,9.964,
01/01/2000,00:01:11.17,-323.73,-71.29,953.13,0.79,-0.85,0.17,28.80,26.10,43.50,29.90,9.964,
01/01/2000,00:01:11.27,-320.31,-83.01,947.27,-1.0,2.49,0.56,28.50,26.40,41.25,30.09,9.964,
01/01/2000,00:01:11.37,-325.20,-86.43,955.57,-0.76,2.16,0.53,27.90,27.75,41.40,30.09,9.964,
01/01/2000,00:01:11.47,-320.80,-91.31,956.05,-0.28,1.97,-0.20,27.75,28.35,43.50,30.33,9.964,
01/01/2000,00:01:11.57,-328.61,-75.20,937.50,-0.29,4.86,-3.76,27.15,27.75,43.20,30.09,9.964,
01/01/2000,00:01:11.67,-323.73,-71.29,957.03,1.69,2.30,-4.10,27.90,27.0,42.45,29.99,9.964,
01/01/2000,00:01:11.77,-317.38,-73.73,936.52,-0.06,1.95,-1.36,27.90,26.25,42.90,30.33,9.965,
01/01/2000,00:01:11.87,-315.92,-79.10,952.64,1.04,-0.27,-1.11,27.90,26.25,43.20,29.90,9.965,
01/01/2000,00:01:11.97,-331.05,-86.43,953.61,-1.89,-0.06,-0.83,27.0,26.40,42.75,29.99,9.965,
01/01/2000,00:01:12.07,-305.18,-80.57,929.69,10.73,1.27,3.82,28.95,25.50,42.15,29.80,9.965,
01/01/2000,00:01:12.17,-320.31,-82.03,921.88,-0.01,3.82,1.11,28.20,26.70,42.45,30.33,9.965,
01/01/2000,00:01:12.27,-329.10,-64.45,958.01,-0.68,1.73,-2.56,28.20,27.0,40.65,29.80,9.965,
01/01/2000,00:01:12.37,-313.96,-69.34,947.75,-0.85,0.57,-1.15,27.75,25.65,42.75,29.90,9.965,
01/01/2000,00:01:12.47,-333.50,-77.15,943.85,-0.15,0.62,-1.12,27.30,26.85,42.30,30.09,9.965,
01/01/2000,00:01:12.57,-321.78,-81.54,960.45,-1.44,1.63,-3.69,26.40,25.80,41.40,29.90,9.965,
01/01/2000,00:01:12.67,-322.75,-79.10,961.43,1.17,0.10,1.19,27.15,27.75,41.40,29.99,9.965,
01/01/2000,00:01:12.77,-312.01,-79.59,955.57,-0.27,0.23,-0.64,28.05,26.40,42.30,30.28,9.964,
01/01/2000,00:01:12.87,-317.87,-79.10,954.10,-0.86,0.17,0.11,27.30,27.15,43.80,30.14,9.964,
01/01/2000,00:01:12.97,-328.61,-76.66,942.38,-0.60,0.69,-0.90,27.75,27.60,41.25,30.09,9.964,
01/01/2000,00:01:13.08,-308.59,-90.82,937.50,0.32,0.78,3.50,27.0,28.80,42.75,30.14,9.964,
01/01/2000,00:01:13.18,-331.05,-76.66,950.68,0.45,0.53,2.64,28.05,27.15,43.05,30.33,9.964,
01/01/2000,00:01:13.28,-320.80,-79.10,955.57,0.60,1.24,-1.05,27.30,26.40,42.30,30.14,9.964,
01/01/2000,00:01:13.38,-322.27,-71.29,940.43,1.11,0.11,-2.02,28.05,27.15,43.05,29.95,9.964,
01/01/2000,00:01:13.48,-306.64,-72.75,960.45,-1.63,4.56,-2.93,27.90,26.70,42.45,30.09,9.964,
01/01/2000,00:01:13.58,-326.66,-83.50,952.15,-1.15,2.64,0.78,28.50,27.15,42.75,29.95,9.964,
01/01/2000,00:01:13.68,-324.71,-71.29,950.20,-1.93,-0.49,-1.47,28.50,26.10,42.30,30.14,9.964,
01/01/2000,00:01:13.78,-319.82,-73.24,955.08,-0.61,1.31,-1.89,27.15,27.0,42.90,29.95,9.964,
01/01/2000,00:01:13.88,-326.66,-77.64,961.43,1.02,2.50,-1.16,26.40,27.45,41.85,29.95,9.964,
01/01/2000,00:01:13.98,-325.68,-81.54,950.68,-1.03,0.32,0.77,27.15,27.75,43.20,30.33,9.964,
01/01/2000,00:01:14.08,-333.50,-80.08,939.45,1.18,1.62,0.44,27.75,26.85,43.50,30.14,9.964,
01/01/2000,00:01:14.18,-321.78,-78.61,952.64,-1.15,2.72,-2.64,27.90,28.50,42.15,29.90,9.964,
01/01/2000,00:01:14.28,-336.43,-71.78,944.34,-1.37,3.21,-3.33,28.50,26.40,42.30,30.28,9.964,
01/01/2000,00:01:14.38,-323.24,-92.77,957.03,-2.37,2.84,-1.18,26.25,26.40,44.10,30.19,9.964,
01/01/2000,00:01:14.48,-324.22,-75.20,947.75,1.15,0.46,0.58,27.15,27.0,42.45,30.09,9.964,
01/01/2000,00:01:14.58,-313.48,-73.73,957.03,-0.26,3.29,0.05,26.55,26.85,43.50,30.09,9.965,
01/01/2000,00:01:14.68,-326.17,-72.75,955.57,1.50,3.21,-2.38,27.15,27.45,42.45,30.09,9.963,
01/01/2000,00:01:14.78,-322.75,-79.10,960.45,-2.95,3.31,-1.57,26.25,26.40,42.0,30.28,9.963,
01/01/2000,00:01:14.88,-329.10,-67.87,956.05,-0.67,3.28,-0.27,27.90,26.70,43.65,30.33,9.963,
01/01/2000,00:01:14.99,-325.20,-66.89,951.17,-0.82,3.02,-2.34,27.75,27.15,41.55,30.14,9.963,
01/01/2000,00:01:15.09,-329.10,-68.36,949.71,0.21,2.91,0.53,28.80,27.15,42.0,30.14,9.963,
01/01/2000,00:01:15.19,-323.24,-81.54,948.73,-1.06,1.73,-3.32,27.15,26.25,43.20,29.99,9.963,
01/01/2000,00:01:15.29,-336.91,-70.31,950.20,1.70,3.34,0.39,27.75,26.85,43.80,30.19,9.963,
01/01/2000,00:01:15.39,-330.57,-69.82,952.64,0.60,1.53,-2.98,27.0,26.40,42.0,29.80,9.964,
01/01/2000,00:01:15.49,-300.29,-81.54,944.34,0.87,1.24,1.81,27.0,25.65,42.0,30.14,9.964,
01/01/2000,00:01:15.59,-324.22,-75.68,944.34,-0.69,-0.97,-0.14,27.75,26.40,42.30,30.09,9.964,
01/01/2000,00:01:15.69,-309.57,-71.29,950.20,-2.96,1.47,0.01,27.45,27.0,43.20,30.09,9.964,
01/01/2000,00:01:15.79,-326.17,-58.59,945.31,-1.61,1.84,0.04,28.50,24.90,42.30,29.80,9.964,
01/01/2000,00:01:15.89,-320.80,-72.27,949.22,-0.60,3.08,-0.66,27.45,27.45,42.15,30.14,9.964,
01/01/2000,00:01:15.99,-327.64,-77.64,952.64,0.08,1.02,-0.18,27.30,26.40,43.05,30.09,9.964,
01/01/2000,00:01:16.09,-322.27,-74.71,954.10,-0.90,3.76,1.11,27.45,26.25,42.90,30.09,9.964,
01/01/2000,00:01:16.19,-329.59,-77.64,963.87,-0.44,1.69,-0.40,28.05,25.65,43.05,30.33,9.964,
01/01/2000,00:01:16.29,-331.54,-76.17,950.68,0.82,1.66,0.44,28.05,26.10,43.50,30.28,9.964,
01/01/2000,00:01:16.39,-321.78,-81.54,956.54,-0.03,2.96,-4.10,27.15,26.25,41.40,30.33,9.963,
01/01/2000,00:01:16.49,-319.82,-79.59,948.73,1.85,0.43,1.89,27.45,26.25,42.90,29.99,9.963,
01/01/2000,00:01:16.59,-325.68,-83.01,962.40,0.44,0.88,0.23,28.20,26.70,44.40,29.95,9.963,
01/01/2000,00:01:16.69,-330.57,-81.54,954.10,-2.16,2.79,-1.70,27.75,26.85,42.75,29.80,9.963,
01/01/2000,00:01:16.79,-321.78,-76.17,958.01,2.40,0.20,0.61,26.55,26.85,42.75,30.14,9.963,
01/01/2000,00:01:16.90,-328.61,-87.89,956.54,0.42,1.08,-0.35,26.70,25.80,42.90,29.90,9.963,
01/01/2000,00:01:17.00,-317.87,-70.31,952.15,-0.26,2.84,-0.58,26.40,27.45,40.65,29.99,9.963,
01/01/2000,00:01:17.10,-327.64,-72.27,948.24,-1.35,-0.02,-3.31,27.30,27.15,43.05,30.09,9.963,
01/01/2000,00:01:17.20,-316.41,-75.20,959.96,-1.37,3.02,-0.31,28.50,26.85,42.75,30.33,9.963,
01/01/2000,00:01:17.30,-338.87,-72.27,949.22,-1.37,-0.04,-1.64,28.80,27.15,43.50,30.33,9.963,
01/01/2000,00:01:17.40,-313.96,-79.10,959.96,-0.53,1.88,-1.23,28.20,26.25,43.20,30.14,9.963,
01/01/2000,00:01:17.50,-326.66,-78.61,956.54,-1.84,3.15,-1.85,27.15,27.75,42.15,30.09,9.963,
01/01/2000,00:01:17.60,-332.03,-80.08,954.59,-0.81,0.42,-2.18,27.45,27.0,42.90,30.09,9.963,
01/01/2000,00:01:17.70,-326.66,-88.87,948.73,-1.03,1.71,-4.70,27.15,27.45,42.45,30.33,9.963,
01/01/2000,00:01:17.80,-335.45,-77.64,957.52,-1.58,1.53,-2.21,27.15,25.80,42.15,30.43,9.963,
01/01/2000,00:01:17.90,-320.80,-80.08,948.73,0.40,2.66,1.46,26.70,26.70,42.45,30.33,9.963,
01/01/2000,00:01:18.00,-333.01,-74.22,944.34,-1.23,2.97,1.56,27.45,27.45,42.90,29.75,9.963,
01/01/2000,00:01:18.10,-316.89,-80.57,944.82,-2.34,-0.14,-3.25,27.75,27.15,42.0,29.95,9.964,
01/01/2000,00:01:18.20,-323.24,-76.66,949.22,-0.21,1.85,-1.92,27.15,27.45,42.15,30.43,9.964,
01/01/2000,00:01:18.30,-325.20,-77.15,957.03,1.11,0.01,1.37,27.30,25.65,43.05,29.95,9.962,
01/01/2000,00:01:18.40,-318.85,-72.27,944.34,2.27,1.37,1.72,27.45,27.75,42.90,29.99,9.962,
01/01/2000,00:01:18.50,-309.57,-78.61,957.52,1.08,1.60,0.07,26.70,26.25,42.15,30.33,9.962,
01/01/2000,00:01:18.60,-319.34,-76.66,951.66,0.52,-0.91,-1.78,28.20,27.0,42.90,30.19,9.962,
01/01/2000,00:01:18.71,-329.10,-63.48,952.64,3.44,1.18,0.32,28.05,27.15,42.75,29.95,9.963,
01/01/2000,00:01:18.81,-298.34,-70.31,931.15,8.16,5.62,3.38,26.70,25.80,43.65,30.09,9.963,
01/01/2000,00:01:18.91,-324.71,-60.06,957.52,0.62,3.50,-0.09,27.30,27.15,42.75,30.33,9.963,
01/01/2000,00:01:19.01,-326.66,-72.75,942.87,0.67,3.99,1.51,26.55,27.15,42.75,30.33,9.963,
01/01/2000,00:01:19.11,-317.38,-83.01,961.43,-0.08,1.48,-0.69,26.55,26.40,42.30,30.28,9.963,
01/01/2000,00:01:19.21,-334.47,-76.17,956.05,0.21,0.88,0.48,26.25,28.05,41.25,29.99,9.963,
01/01/2000,00:01:19.31,-328.13,-75.68,950.20,-0.95,2.91,-1.50,26.40,27.45,42.90,30.14,9.963,
01/01/2000,00:01:19.41,-333.50,-78.13,953.61,-0.31,2.58,0.21,27.75,25.35,42.30,30.09,9.963,
01/01/2000,00:01:19.51,-327.64,-81.05,954.10,-1.74,1.57,-0.89,26.70,28.20,41.85,30.14,9.963,
01/01/2000,00:01:19.61,-325.20,-80.57,945.31,0.34,0.55,0.79,28.20,27.0,42.90,29.95,9.963,
01/01/2000,00:01:19.71,-324.22,-94.24,943.85,-11.66,1.07,-6.68,27.75,27.15,42.30,30.19,9.963,
01/01/2000,00:01:19.81,-320.31,-85.94,948.73,1.53,2.68,-3.50,27.90,27.0,42.90,29.99,9.963,
01/01/2000,00:01:19.91,-313.48,-88.38,952.64,-3.50,1.73,-1.46,25.50,25.35,41.55,30.14,9.963,
01/01/2000,00:01:20.01,-317.38,-87.89,959.47,0.77,-0.18,1.24,27.0,26.10,42.0,29.99,9.963,
01/01/2000,00:01:20.11,-334.47,-86.91,951.66,-1.23,1.66,-2.17,27.75,26.85,41.55,30.14,9.963,
01/01/2000,00:01:20.21,-323.24,-82.52,955.57,0.76,1.55,-0.97,27.0,25.65,43.50,30.33,9.962,
01/01/2000,00:01:20.31,-315.43,-84.47,950.20,1.07,0.85,-0.97,26.70,27.45,42.90,30.33,9.962,
01/01/2000,00:01:20.41,-321.78,-88.87,948.24,0.27,2.78,-2.27,27.15,25.80,42.15,29.99,9.962,
01/01/2000,00:01:20.51,-305.66,-88.87,955.57,1.02,1.88,0.92,26.70,24.75,41.85,30.33,9.962,
01/01/2000,00:01:20.62,-306.64,-83.50,948.24,-4.43,1.98,0.32,27.45,26.70,43.20,30.28,9.962,
01/01/2000,00:01:20.72,-317.38,-82.52,937.99,0.37,-0.59,2.69,28.50,26.40,42.75,30.14,9.962,
01/01/2000,00:01:20.82,-316.41,-86.91,952.15,-1.15,1.44,-2.86,27.75,26.40,44.10,30.28,9.962,
01/01/2000,00:01:20.92,-314.45,-75.20,958.01,0.21,6.26,-1.21,27.15,25.80,42.90,29.99,9.962,
01/01/2000,00:01:21.02,-309.57,-79.59,949.71,-0.19,0.17,2.24,26.70,25.80,42.15,29.95,9.962,
01/01/2000,00:01:21.12,-321.29,-88.38,958.98,0.59,0.69,1.85,27.15,27.45,42.90,30.33,9.962,
01/01/2000,00:01:21.22,-329.10,-91.31,970.70,-1.77,-0.05,-0.15,27.0,25.65,42.0,29.90,9.962,
01/01/2000,00:01:21.32,-327.15,-82.52,957.03,1.08,1.55,0.54,26.55,27.60,43.80,30.14,9.962,
01/01/2000,00:01:21.42,-313.48,-87.89,943.36,-1.03,4.02,-1.62,25.80,26.10,42.0,30.14,9.963,
01/01/2000,00:01:21.52,-335.45,-85.45,944.34,-0.93,0.40,2.97,27.45,27.0,43.20,30.14,9.963,
01/01/2000,00:01:21.62,-316.89,-81.05,957.03,-0.22,3.23,-1.13,26.55,25.65,42.75,29.90,9.963,
01/01/2000,00:01:21.72,-325.68,-83.50,938.96,-1.34,1.88,1.21,27.0,28.05,42.0,30.33,9.963,
01/01/2000,00:01:21.82,-340.82,-87.89,951.17,-4.56,-0.31,7.49,27.30,27.15,41.55,30.14,9.963,
01/01/2000,00:01:21.92,-321.29,-79.10,930.66,-0.08,2.78,0.44,25.65,26.25,42.15,29.95,9.963,
01/01/2000,00:01:22.02,-311.52,-78.13,950.20,-0.91,1.29,-0.85,26.55,26.40,42.75,30.14,9.963,
01/01/2000,00:01:22.12,-326.17,-86.91,937.01,-1.34,2.30,1.04,25.95,26.25,41.40,30.14,9.962,
01/01/2000,00:01:22.22,-312.99,-83.98,947.75,-2.33,1.36,-1.44,28.50,27.15,42.30,30.33,9.962,
01/01/2000,00:01:22.32,-328.61,-95.21,951.17,1.21,1.14,-0.03,26.40,27.0,42.90,29.80,9.962,
01/01/2000,00:01:22.42,-313.48,-79.59,952.15,4.74,1.98,0.62,28.05,24.90,43.05,30.09,9.962,
01/01/2000,00:01:22.53,-317.87,-73.24,946.29,-0.96,2.73,-1.59,28.05,28.05,42.75,29.80,9.962,
01/01/2000,00:01:22.63,-330.08,-77.15,970.21,-0.25,1.96,-1.40,27.30,26.40,42.30,30.43,9.962,
01/01/2000,00:01:22.73,-316.89,-78.61,957.52,0.77,-0.83,-1.30,28.20,25.05,43.65,29.95,9.962,
01/01/2000,00:01:22.83,-320.80,-78.61,937.50,-1.27,2.05,0.54,28.05,28.80,42.30,30.19,9.962,
01/01/2000,00:01:22.93,-330.08,-83.50,954.10,-2.01,1.85,2.77,27.30,25.65,43.05,29.90,9.962,
01/01/2000,00:01:23.03,-333.98,-62.99,953.13,2.34,0.95,-0.04,26.70,27.75,42.15,30.14,9.962,
01/01/2000,00:01:23.13,-327.64,-73.73,936.04,2.31,1.75,0.56,28.65,27.75,42.90,29.99,9.962,
01/01/2000,00:01:23.23,-330.08,-90.33,952.15,-1.81,3.35,0.24,27.75,27.15,44.10,30.14,9.962,
01/01/2000,00:01:23.33,-312.50,-80.57,953.13,-0.15,3.89,-0.07,27.90,26.25,43.65,30.09,9.962,
01/01/2000,00:01:23.43,-322.27,-78.13,960.94,-3.42,4.20,-1.37,27.45,27.45,42.90,30.33,9.962,
01/01/2000,00:01:23.53,-291.50,-69.34,957.52,-0.36,0.46,-2.60,27.15,25.80,43.20,30.43,9.962,
01/01/2000,00:01:23.63,-325.20,-74.71,965.82,1.72,1.0,-1.40,28.05,27.15,43.80,30.19,9.962,
01/01/2000,00:01:23.73,-337.40,-73.24,963.87,1.94,0.07,0.76,26.40,27.0,44.70,30.19,9.962,
01/01/2000,00:01:23.83,-314.45,-77.15,965.82,2.37,0.05,0.13,27.45,25.50,42.15,30.47,9.962,
01/01/2000,00:01:23.93,-310.06,-74.22,960.45,0.62,1.29,1.14,28.50,25.35,42.30,29.99,9.961,
01/01/2000,00:01:24.03,-312.01,-74.22,946.29,-2.15,1.95,-3.45,27.30,28.05,42.75,30.14,9.961,
01/01/2000,00:01:24.13,-330.08,-84.96,948.24,0.90,1.63,-1.57,26.70,27.75,42.90,30.14,9.961,
01/01/2000,00:01:24.23,-307.13,-77.64,962.89,1.73,0.08,0.58,27.15,28.20,43.95,30.62,9.961,
01/01/2000,00:01:24.34,-312.50,-71.29,946.78,-1.53,1.38,-0.31,27.0,27.60,44.55,30.14,9.961,
01/01/2000,00:01:24.44,-330.08,-85.45,959.47,1.51,0.96,-0.33,25.50,26.85,43.50,30.14,9.962,
01/01/2000,00:01:24.54,-307.62,-85.94,952.15,-1.50,1.82,0.87,27.0,26.40,43.05,30.43,9.962,
01/01/2000,00:01:24.64,-329.10,-66.89,917.97,9.38,6.66,3.66,27.45,26.25,43.20,30.28,9.962,
01/01/2000,00:01:24.74,-328.61,-82.52,957.03,-1.66,1.87,-1.62,28.50,27.60,43.05,30.28,9.962,
01/01/2000,00:01:24.84,-317.38,-87.40,942.87,-2.90,1.48,-0.84,28.20,27.75,43.20,30.09,9.962,
01/01/2000,00:01:24.94,-322.75,-72.75,949.22,-3.60,1.83,-1.11,27.45,25.80,42.15,30.14,9.962,
01/01/2000,00:01:25.04,-332.03,-78.13,950.20,-0.02,-0.11,1.02,27.45,27.45,42.45,29.95,9.962,
01/01/2000,00:01:25.14,-314.45,-92.29,946.78,4.76,3.28,0.22,28.65,27.0,42.15,30.43,9.962,
01/01/2000,00:01:25.24,-319.82,-84.96,947.27,-0.92,-0.59,-0.60,27.45,26.25,42.15,30.33,9.962,
01/01/2000,00:01:25.34,-326.17,-78.61,973.14,-3.44,-1.46,-4.85,28.50,26.10,43.80,30.19,9.962,
01/01/2000,00:01:25.44,-319.34,-84.47,960.94,-0.78,1.79,-0.28,27.30,27.60,41.25,29.90,9.962,
01/01/2000,00:01:25.54,-311.04,-95.70,942.38,0.29,0.36,-0.12,27.30,25.35,43.05,30.14,9.962,
01/01/2000,00:01:25.64,-317.38,-78.13,949.22,0.18,2.83,-3.75,27.0,27.15,43.50,30.43,9.962,
01/01/2000,00:01:25.74,-318.36,-86.91,948.73,0.52,3.11,-3.28,26.55,27.60,43.05,30.14,9.961,
01/01/2000,00:01:25.84,-326.66,-80.08,957.03,1.90,-0.24,-1.84,27.45,27.45,42.15,30.47,9.961,
01/01/2000,00:01:25.94,-312.50,-76.17,951.66,0.14,-0.92,-1.16,27.75,26.40,43.05,30.09,9.961,
01/01/2000,00:01:26.04,-321.78,-88.38,950.68,-2.22,5.27,-0.80,28.80,26.40,43.50,30.28,9.961,
01/01/2000,00:01:26.15,-306.64,-73.73,953.61,-0.27,2.07,-0.78,27.90,27.45,42.15,30.33,9.961,
01/01/2000,00:01:26.25,-305.18,-84.47,941.41,-1.15,2.05,2.22,28.50,27.60,41.55,30.43,9.961,
