rtcDate,rtcTime,aX,aY,aZ,gX,gY,gZ,mX,mY,mZ,imu_degC,output_Hz,
02/07/2025,12:15:14.79,198.73,938.48,-282.71,6.73,1.79,-10.0,-37.95,68.10,-16.50,34.50,100.0,
02/07/2025,12:15:14.89,199.22,909.18,-283.20,3.39,3.50,-1.24,-38.40,67.35,-19.05,34.64,18.182,
02/07/2025,12:15:15.00,206.05,930.18,-319.82,3.67,0.08,-7.47,-36.30,67.20,-20.10,34.40,14.286,
02/07/2025,12:15:15.10,193.85,934.57,-321.78,2.02,1.68,1.91,-36.30,67.20,-20.10,34.55,12.903,
02/07/2025,12:15:15.20,200.68,914.06,-320.31,1.46,4.22,-0.36,-38.55,65.70,-18.90,34.50,12.195,
02/07/2025,12:15:15.30,194.34,931.64,-312.99,-3.28,2.40,-3.44,-38.40,67.35,-20.25,34.64,11.765,
02/07/2025,12:15:15.40,197.27,901.86,-323.24,-3.92,2.38,-1.82,-37.65,66.60,-19.80,34.64,11.475,
02/07/2025,12:15:15.50,201.66,923.83,-318.85,-2.43,2.20,-1.91,-38.40,66.60,-18.75,34.50,11.268,
02/07/2025,12:15:15.60,200.20,939.94,-299.80,-1.10,0.92,-1.47,-38.70,67.05,-18.75,34.83,11.111,
02/07/2025,12:15:15.70,215.82,919.43,-308.11,0.33,0.02,-0.21,-37.20,67.05,-17.70,34.93,10.989,
02/07/2025,12:15:15.80,208.01,920.90,-304.69,3.87,-0.39,-0.25,-37.65,67.35,-19.50,34.74,10.891,
02/07/2025,12:15:15.90,196.78,943.85,-312.99,-1.18,3.45,-0.09,-36.90,66.60,-19.05,34.74,10.811,
02/07/2025,12:15:16.00,194.34,929.69,-311.52,0.46,1.89,-0.22,-37.95,68.55,-19.50,34.93,10.656,
02/07/2025,12:15:16.10,194.34,939.45,-318.36,-0.80,2.73,3.13,-38.55,67.20,-18.15,34.83,10.606,
02/07/2025,12:15:16.21,198.24,947.75,-302.73,-0.60,5.08,-0.96,-37.05,66.45,-18.60,34.93,10.563,
02/07/2025,12:15:16.31,214.36,934.08,-305.66,-2.59,4.81,-0.60,-38.55,66.0,-18.15,34.93,10.526,
02/07/2025,12:15:16.41,199.22,926.76,-317.38,-1.60,0.28,-4.46,-38.25,66.0,-19.35,34.88,10.494,
02/07/2025,12:15:16.51,203.13,924.80,-309.08,-2.14,3.59,-2.39,-37.20,67.80,-19.50,34.83,10.465,
02/07/2025,12:15:16.61,208.01,948.24,-298.34,-0.82,-0.09,0.94,-37.65,66.0,-18.15,34.83,10.440,
02/07/2025,12:15:16.71,207.52,930.18,-315.92,-1.17,-0.72,0.26,-38.25,66.75,-19.65,34.93,10.417,
02/07/2025,12:15:16.81,194.82,930.18,-300.29,-0.53,0.37,-0.34,-39.30,67.65,-18.15,35.03,10.396,
02/07/2025,12:15:16.91,198.24,940.92,-307.13,-0.86,1.08,-3.05,-36.75,66.75,-17.85,35.17,10.377,
02/07/2025,12:15:17.01,212.40,933.11,-299.32,-2.60,-0.46,-4.18,-36.90,67.05,-19.05,34.93,10.360,
02/07/2025,12:15:17.11,179.69,924.80,-303.22,-2.51,3.20,-4.18,-37.65,66.60,-19.05,34.74,10.345,
02/07/2025,12:15:17.21,196.29,911.13,-304.69,-7.67,0.21,-5.84,-37.50,65.70,-18.60,34.74,10.331,
02/07/2025,12:15:17.31,213.38,932.13,-297.85,-24.63,4.31,-13.48,-37.20,68.55,-18.45,34.93,10.277,
02/07/2025,12:15:17.41,139.65,975.59,-209.96,-36.52,3.24,-9.32,-37.20,68.10,-17.70,34.74,10.266,
02/07/2025,12:15:17.52,122.56,952.15,-111.33,-115.11,-21.17,-3.02,-36.75,70.20,-14.25,34.93,10.256,
02/07/2025,12:15:17.62,158.69,951.66,197.75,-144.15,-52.12,-26.15,-33.0,78.75,-5.40,34.74,10.247,
02/07/2025,12:15:17.72,140.14,927.73,293.46,-36.92,-5.92,-21.48,-31.95,79.65,1.35,34.69,10.239,
02/07/2025,12:15:17.82,107.91,907.23,322.75,-4.85,10.45,-18.18,-31.95,82.05,3.45,34.83,10.231,
02/07/2025,12:15:17.92,79.10,993.65,303.22,-14.21,-6.23,1.18,-31.80,81.45,3.15,34.64,10.224,
02/07/2025,12:15:18.02,89.84,925.29,370.12,-9.52,11.89,9.98,-30.30,81.75,3.60,34.74,10.217,
02/07/2025,12:15:18.12,64.45,900.88,373.05,27.04,18.70,-11.22,-32.55,80.70,3.90,34.74,10.210,
02/07/2025,12:15:18.22,31.25,926.27,331.05,1.09,10.06,0.62,-31.05,82.50,2.85,34.64,10.204,
02/07/2025,12:15:18.32,69.82,926.27,288.57,10.05,15.64,1.85,-31.50,82.20,4.35,34.50,10.198,
02/07/2025,12:15:18.42,94.73,924.80,269.04,-0.89,13.15,2.37,-29.40,80.85,3.45,34.64,10.193,
02/07/2025,12:15:18.52,99.61,924.80,337.89,-3.92,10.73,-0.21,-31.65,82.80,4.80,34.69,10.160,
02/07/2025,12:15:18.62,59.08,905.76,320.80,-7.78,-3.69,-2.45,-30.45,81.15,6.0,34.64,10.156,
02/07/2025,12:15:18.72,0.98,901.37,366.21,-28.67,15.90,-4.26,-31.20,83.10,6.30,34.83,10.152,
02/07/2025,12:15:18.83,14.65,893.07,445.80,-14.47,25.14,8.54,-31.80,81.75,8.70,34.64,10.149,
02/07/2025,12:15:18.93,34.67,880.86,466.80,-11.49,14.50,0.47,-30.75,82.50,11.25,34.64,10.145,
02/07/2025,12:15:19.03,18.07,895.51,427.73,-5.61,7.11,3.01,-33.0,82.95,11.70,35.03,10.142,
02/07/2025,12:15:19.13,20.51,896.00,442.38,-1.86,0.90,-6.03,-31.05,82.20,11.70,35.03,10.138,
02/07/2025,12:15:19.23,0.0,885.25,452.64,-6.96,-2.94,-7.11,-32.25,81.75,9.75,34.93,10.135,
02/07/2025,12:15:19.33,-39.06,872.07,359.38,-26.39,-9.13,-26.56,-31.05,82.50,12.30,34.93,10.132,
02/07/2025,12:15:19.43,-16.60,818.36,408.20,-58.24,1.98,-38.0,-26.70,83.85,15.90,34.69,10.129,
02/07/2025,12:15:19.53,-38.57,792.48,699.22,-28.79,16.11,-54.76,-25.05,84.15,20.70,34.69,10.127,
02/07/2025,12:15:19.63,-149.90,723.63,650.88,-33.44,-95.01,-65.50,-22.80,85.20,22.65,34.69,10.124,
02/07/2025,12:15:19.73,-8.79,473.14,747.56,-47.91,-44.38,-47.85,-20.25,85.65,24.75,34.74,10.121,
02/07/2025,12:15:19.83,-194.34,575.68,789.55,-9.34,-24.05,-31.78,-18.75,84.90,27.0,34.93,10.099,
02/07/2025,12:15:19.93,-11.72,449.71,849.12,-27.83,-19.50,-14.66,-18.0,85.20,27.0,34.64,10.097,
02/07/2025,12:15:20.03,-47.85,436.04,883.30,-35.69,-16.23,-14.27,-16.50,84.90,30.60,34.88,10.095,
02/07/2025,12:15:20.14,70.31,396.00,961.43,-6.38,-17.57,-5.68,-18.45,85.50,31.95,34.74,10.093,
02/07/2025,12:15:20.24,-53.71,477.54,800.29,-0.85,45.63,-38.09,-16.05,86.10,33.60,34.83,10.092,
02/07/2025,12:15:20.34,-193.85,427.73,869.14,-37.33,34.27,-16.92,-12.0,85.20,33.60,34.93,10.090,
02/07/2025,12:15:20.44,-304.20,319.34,926.27,-127.28,42.89,11.18,-12.45,82.05,38.55,34.74,10.088,
02/07/2025,12:15:20.54,-322.27,91.31,1026.37,-76.82,64.73,-37.76,-8.70,76.95,48.0,34.74,10.087,
02/07/2025,12:15:20.64,-285.64,156.74,995.12,28.66,-42.38,-3.44,-9.15,76.65,47.70,34.74,10.085,
02/07/2025,12:15:20.74,-182.13,190.92,958.50,-1.96,-30.11,2.27,-9.15,79.35,47.70,34.74,10.084,
02/07/2025,12:15:20.84,-226.56,100.10,1057.62,-6.51,-35.66,12.18,-12.45,78.60,49.80,35.03,10.083,
02/07/2025,12:15:20.94,97.66,330.57,568.36,96.11,-238.22,50.03,-22.20,78.60,47.70,34.83,10.081,
02/07/2025,12:15:21.04,33.69,171.88,723.14,-9.89,1.69,-4.56,-28.20,79.65,46.20,34.83,10.064,
02/07/2025,12:15:21.14,106.93,248.05,923.83,-0.26,0.61,0.16,-27.15,81.15,43.95,34.74,10.063,
02/07/2025,12:15:21.24,108.89,250.98,960.94,1.19,3.46,-1.18,-26.70,80.10,44.70,34.55,10.062,
02/07/2025,12:15:21.35,110.84,254.88,968.75,0.29,2.87,-2.03,-27.15,79.65,46.95,34.74,10.061,
02/07/2025,12:15:21.45,142.58,217.77,920.41,-7.41,1.83,-1.54,-26.25,80.25,45.60,34.69,10.060,
02/07/2025,12:15:21.55,107.91,259.77,968.26,-1.63,2.19,-0.67,-27.30,79.50,46.80,34.74,10.059,
02/07/2025,12:15:21.65,110.84,251.46,968.75,-1.71,1.95,-2.80,-27.45,79.35,47.70,34.40,10.058,
02/07/2025,12:15:21.75,92.29,259.28,993.16,-0.74,2.28,-0.83,-25.05,79.05,46.05,34.83,10.057,
02/07/2025,12:15:21.85,106.45,244.63,968.26,0.04,1.28,-1.02,-27.0,80.25,46.80,34.88,10.057,
02/07/2025,12:15:21.95,127.93,219.24,945.80,-2.62,0.50,-2.50,-26.40,81.60,45.45,34.74,10.056,
02/07/2025,12:15:22.05,99.12,246.58,970.70,-2.06,-0.21,-2.88,-27.0,79.05,47.10,34.74,10.055,
02/07/2025,12:15:22.15,90.82,258.30,960.45,-1.15,0.66,-3.03,-26.40,79.35,45.45,35.03,10.054,
02/07/2025,12:15:22.25,99.61,250.49,975.59,-0.95,0.21,-0.64,-26.25,79.50,45.60,34.69,10.040,
02/07/2025,12:15:22.35,114.75,256.35,971.19,-0.40,1.38,0.44,-27.75,80.25,47.10,34.93,10.040,
02/07/2025,12:15:22.45,110.84,247.07,965.82,-1.41,0.50,0.01,-25.05,79.50,46.80,34.69,10.039,
02/07/2025,12:15:22.55,107.42,245.61,970.70,-1.16,0.98,-0.87,-28.05,79.95,45.60,34.93,10.039,
02/07/2025,12:15:22.66,115.72,251.95,968.26,-1.18,1.86,-2.79,-25.50,79.50,46.35,34.64,10.038,
02/07/2025,12:15:22.76,100.59,254.88,960.45,-1.46,2.54,-2.18,-28.05,79.95,46.80,34.64,10.038,
02/07/2025,12:15:22.86,107.91,234.86,959.47,-1.56,3.07,-0.90,-26.70,79.65,46.95,34.64,10.037,
02/07/2025,12:15:22.96,111.33,249.51,958.50,-0.59,2.21,0.40,-27.45,79.65,46.95,34.64,10.037,
02/07/2025,12:15:23.06,102.05,241.21,954.10,-2.08,4.02,-0.75,-25.05,80.70,46.05,34.74,10.036,
02/07/2025,12:15:23.16,73.24,316.41,951.66,-4.46,-0.83,1.82,-26.40,80.10,45.75,34.74,10.036,
02/07/2025,12:15:23.26,95.70,212.89,931.64,1.01,0.79,-2.31,-25.95,78.90,46.20,34.74,10.035,
02/07/2025,12:15:23.36,104.98,244.63,956.05,-1.04,2.40,-1.60,-25.80,79.05,46.05,34.83,10.035,
02/07/2025,12:15:23.46,109.38,246.58,964.84,-2.17,2.82,-0.92,-28.05,79.50,44.85,34.64,10.035,
02/07/2025,12:15:23.56,107.42,245.12,966.80,-0.89,1.43,-0.54,-27.45,80.40,45.75,34.69,10.023,
02/07/2025,12:15:23.66,94.73,241.21,957.03,-0.98,3.17,-2.73,-26.40,80.10,46.50,34.64,10.023,
02/07/2025,12:15:23.76,108.40,250.0,974.12,-2.02,2.73,1.75,-26.25,80.70,46.05,34.64,10.022,
02/07/2025,12:15:23.87,104.49,244.63,970.70,-1.08,3.68,-0.98,-25.80,79.05,46.35,34.74,10.022,
02/07/2025,12:15:23.97,120.61,248.54,951.66,-0.36,1.76,1.11,-28.50,79.95,45.60,35.03,10.022,
02/07/2025,12:15:24.07,102.54,238.77,958.01,-1.84,2.66,1.50,-25.50,78.75,47.40,34.74,10.022,
02/07/2025,12:15:24.17,104.00,240.23,957.52,-1.95,1.59,-0.40,-26.70,77.70,45.45,34.74,10.021,
02/07/2025,12:15:24.27,104.00,246.58,957.52,-1.34,1.79,-1.78,-27.90,79.65,45.15,34.64,10.021,
02/07/2025,12:15:24.37,108.40,248.54,964.84,-1.10,2.33,-3.87,-27.45,78.60,47.25,34.83,10.021,
02/07/2025,12:15:24.47,89.84,233.89,952.64,-0.34,1.82,-0.09,-27.15,78.90,48.75,34.50,10.021,
02/07/2025,12:15:24.57,96.68,249.51,955.08,-0.75,1.68,1.73,-27.15,81.15,46.95,34.64,10.020,
02/07/2025,12:15:24.67,100.59,244.63,960.45,0.02,0.55,-2.34,-25.65,78.60,46.50,34.55,10.020,
02/07/2025,12:15:24.77,93.75,246.09,969.24,1.47,1.41,0.88,-27.15,79.65,46.50,34.74,10.010,
02/07/2025,12:15:24.87,101.56,262.70,957.03,0.03,0.11,-2.06,-27.0,79.50,47.10,34.64,10.010,
02/07/2025,12:15:24.97,105.47,240.72,988.28,2.08,0.03,-0.95,-26.55,79.05,46.05,34.69,10.010,
02/07/2025,12:15:25.08,103.03,241.70,969.73,1.02,-1.11,-1.18,-26.70,78.60,46.50,34.64,10.010,
02/07/2025,12:15:25.18,100.59,236.33,952.15,1.40,0.13,-1.35,-26.55,78.0,47.10,34.74,10.010,
02/07/2025,12:15:25.28,116.21,249.02,963.38,1.07,0.18,-2.13,-26.55,78.30,46.80,34.50,10.010,
02/07/2025,12:15:25.38,102.54,245.61,968.75,-1.64,-2.24,-0.80,-27.15,79.35,46.95,34.50,10.009,
02/07/2025,12:15:25.48,103.03,236.82,958.50,2.02,1.40,0.02,-26.70,78.60,47.25,34.64,10.009,
02/07/2025,12:15:25.58,83.01,251.46,967.77,-1.72,1.08,-0.79,-26.40,79.65,45.75,34.64,10.009,
02/07/2025,12:15:25.68,96.68,248.05,945.31,-1.98,0.62,-0.12,-26.40,79.65,46.20,34.64,10.009,
02/07/2025,12:15:25.78,113.77,246.58,960.45,0.76,2.27,-1.56,-27.30,79.50,46.80,34.69,10.009,
02/07/2025,12:15:25.88,109.86,256.35,971.68,-1.98,1.44,2.59,-28.65,79.35,46.95,34.50,10.009,
02/07/2025,12:15:25.98,100.59,233.89,970.21,0.79,0.87,-2.27,-26.70,80.40,47.25,34.55,10.009,
02/07/2025,12:15:26.08,95.70,242.19,966.80,1.83,0.52,0.22,-25.80,78.75,46.80,34.40,10.0,
02/07/2025,12:15:26.18,114.26,227.54,965.82,-1.40,2.31,-2.35,-26.40,78.90,45.45,34.74,10.0,
02/07/2025,12:15:26.28,109.38,234.86,967.29,-0.51,-0.05,-1.33,-26.55,79.05,46.80,34.64,10.0,
02/07/2025,12:15:26.39,100.10,236.33,971.19,1.44,0.52,-4.39,-26.55,78.75,46.05,34.31,10.0,
02/07/2025,12:15:26.49,105.47,245.61,964.36,0.70,0.32,-1.97,-25.95,79.35,46.50,34.40,10.0,
02/07/2025,12:15:26.59,100.59,248.54,969.73,-0.80,0.71,-0.95,-26.70,81.15,45.75,34.74,10.0,
02/07/2025,12:15:26.69,103.52,241.21,974.12,-1.57,1.41,-2.02,-26.55,80.25,47.10,34.50,10.0,
02/07/2025,12:15:26.79,104.98,243.16,966.31,-1.15,-0.60,-0.47,-26.70,80.10,47.25,34.50,10.0,
02/07/2025,12:15:26.89,103.03,238.77,958.50,0.13,1.38,-0.26,-26.40,80.85,46.95,34.64,10.0,
02/07/2025,12:15:26.99,122.07,243.16,967.29,2.26,1.19,1.14,-26.25,79.05,47.10,34.64,10.0,
02/07/2025,12:15:27.09,110.84,243.16,961.91,-0.31,0.21,-2.53,-27.75,79.95,46.35,34.64,10.0,
02/07/2025,12:15:27.19,86.91,241.21,973.63,2.10,0.44,0.54,-25.80,79.50,46.35,34.74,10.0,
02/07/2025,12:15:27.29,101.56,232.91,960.94,0.51,1.11,-0.60,-26.70,79.35,45.45,34.55,9.992,
02/07/2025,12:15:27.39,91.31,239.75,966.80,-1.60,3.21,1.28,-26.40,78.90,46.95,34.55,9.992,
02/07/2025,12:15:27.49,89.84,233.89,972.17,0.96,1.50,-0.59,-26.25,79.05,46.80,34.64,9.992,
02/07/2025,12:15:27.60,105.96,239.75,962.89,-1.69,2.81,-2.83,-26.40,80.40,47.70,34.64,9.992,
02/07/2025,12:15:27.70,99.12,236.33,962.40,-2.06,0.60,0.85,-26.25,80.25,46.05,34.74,9.992,
02/07/2025,12:15:27.80,89.36,237.79,959.96,-1.13,2.13,-2.24,-26.70,80.10,47.25,34.74,9.992,
02/07/2025,12:15:27.90,102.05,244.14,968.26,-0.65,2.95,-1.61,-25.80,79.95,46.05,34.69,9.992,
02/07/2025,12:15:28.00,95.21,233.40,965.82,-1.39,1.67,-3.48,-26.70,78.15,47.70,34.93,9.992,
02/07/2025,12:15:28.10,91.31,244.14,953.61,-1.05,1.01,-3.44,-26.40,80.10,46.50,34.69,9.992,
02/07/2025,12:15:28.20,99.61,247.56,955.08,0.91,3.54,-2.62,-26.70,79.65,46.95,34.69,9.993,
02/07/2025,12:15:28.30,115.72,235.84,958.98,-1.20,2.24,-4.06,-27.30,80.70,47.40,34.69,9.993,
02/07/2025,12:15:28.40,89.84,249.02,957.03,-2.60,2.11,-1.95,-26.40,80.85,46.95,34.69,9.993,
02/07/2025,12:15:28.50,91.80,233.40,976.56,-2.57,4.16,-0.89,-27.15,79.65,47.25,35.17,9.985,
02/07/2025,12:15:28.60,98.63,246.09,968.75,-2.53,3.46,-2.89,-27.45,79.65,47.25,34.93,9.986,
02/07/2025,12:15:28.70,98.14,247.56,949.71,-0.42,1.50,-1.69,-25.80,78.75,46.80,34.83,9.986,
02/07/2025,12:15:28.80,95.70,248.05,964.84,-1.17,0.64,-1.81,-26.70,79.65,45.75,34.83,9.986,
02/07/2025,12:15:28.91,102.54,239.75,965.33,-0.11,0.97,-1.09,-26.40,78.90,45.75,34.74,9.986,
02/07/2025,12:15:29.01,109.86,236.33,963.87,-0.40,1.75,-2.98,-25.95,80.40,46.50,34.74,9.986,
02/07/2025,12:15:29.11,109.86,240.72,960.94,-0.50,2.44,-1.43,-26.25,79.05,46.35,34.83,9.986,
02/07/2025,12:15:29.21,95.70,252.44,967.29,1.73,1.97,-0.21,-27.45,80.85,47.25,34.88,9.986,
02/07/2025,12:15:29.31,97.66,240.23,965.33,-0.70,-0.66,1.49,-26.40,78.90,46.50,34.93,9.986,
02/07/2025,12:15:29.41,86.91,230.47,964.84,-0.01,-0.41,-1.34,-26.55,79.50,47.10,34.83,9.986,
02/07/2025,12:15:29.51,111.33,238.77,971.19,-2.21,1.50,-0.69,-25.95,80.40,46.95,34.83,9.986,
02/07/2025,12:15:29.61,102.05,245.61,967.29,-0.82,2.31,-0.85,-26.25,79.95,46.80,34.69,9.987,
02/07/2025,12:15:29.71,103.52,233.89,960.94,0.48,2.14,-2.31,-26.25,79.05,45.30,34.93,9.987,
02/07/2025,12:15:29.81,99.12,244.14,966.80,0.98,1.15,-0.22,-26.40,77.70,46.20,34.93,9.980,
02/07/2025,12:15:29.91,106.45,229.49,957.03,-0.16,1.04,-1.27,-26.55,79.05,47.10,34.93,9.980,
02/07/2025,12:15:30.01,102.54,232.42,972.17,1.57,3.54,-1.34,-25.50,79.05,47.40,34.93,9.980,
02/07/2025,12:15:30.12,101.56,241.21,966.80,0.27,1.31,-2.98,-25.50,78.75,46.35,34.83,9.980,
02/07/2025,12:15:30.22,103.52,240.72,970.21,1.44,0.76,0.53,-27.75,79.95,47.40,34.83,9.981,
02/07/2025,12:15:30.32,99.12,236.82,961.91,-1.44,1.86,0.34,-25.65,80.40,47.70,34.74,9.981,
02/07/2025,12:15:30.42,104.00,249.51,950.68,0.97,1.79,-0.56,-25.65,80.10,45.75,34.74,9.981,
02/07/2025,12:15:30.52,107.42,233.89,962.40,-1.53,2.65,-1.92,-26.55,78.75,46.35,34.69,9.981,
02/07/2025,12:15:30.62,105.47,234.86,962.89,-2.73,5.14,-0.61,-26.55,78.75,47.40,34.93,9.981,
02/07/2025,12:15:30.72,103.03,240.23,964.36,-1.49,0.42,-1.47,-27.45,80.10,46.20,34.74,9.981,
02/07/2025,12:15:30.82,97.17,244.63,966.31,-1.27,0.68,-2.06,-26.25,79.50,44.85,34.88,9.981,
02/07/2025,12:15:30.92,97.66,248.05,962.89,-0.37,5.37,-0.72,-26.70,79.35,45.75,35.22,9.981,
02/07/2025,12:15:31.02,112.30,229.98,963.38,-0.96,3.47,0.86,-25.95,78.60,46.95,34.83,9.975,
02/07/2025,12:15:31.12,95.70,227.05,967.29,-0.25,1.19,-1.73,-26.55,78.75,46.05,34.74,9.976,
02/07/2025,12:15:31.22,94.24,238.77,976.56,-0.79,3.83,0.44,-26.70,78.60,47.25,34.83,9.976,
02/07/2025,12:15:31.33,109.86,250.49,961.43,-1.02,2.27,-1.02,-26.70,79.35,45.75,34.74,9.976,
02/07/2025,12:15:31.43,110.35,237.79,958.50,-1.46,1.13,1.67,-26.40,78.60,47.70,34.74,9.976,
02/07/2025,12:15:31.53,104.49,242.19,967.29,-0.99,1.14,-2.05,-27.0,79.50,46.80,34.83,9.976,
02/07/2025,12:15:31.63,93.75,232.91,960.45,-0.66,0.35,-0.06,-25.80,78.75,46.05,34.88,9.976,
02/07/2025,12:15:31.73,103.52,246.58,966.31,-0.25,1.92,-0.82,-25.80,79.95,45.60,34.93,9.976,
02/07/2025,12:15:31.83,97.66,224.12,963.38,0.21,1.08,0.18,-25.65,79.65,45.75,34.93,9.977,
02/07/2025,12:15:31.93,96.68,232.91,969.73,0.05,1.05,0.50,-25.65,78.90,46.95,34.83,9.977,
02/07/2025,12:15:32.03,92.29,221.68,961.91,0.95,-0.18,2.58,-26.55,79.50,47.10,34.83,9.977,
02/07/2025,12:15:32.13,95.21,237.30,974.61,-0.66,1.15,-0.67,-26.55,79.50,47.10,34.64,9.977,
02/07/2025,12:15:32.23,101.07,240.23,972.66,0.29,-1.08,1.19,-25.50,79.05,46.35,34.93,9.977,
02/07/2025,12:15:32.33,92.77,237.79,978.52,-0.31,2.94,1.37,-26.25,78.30,47.10,34.74,9.972,
02/07/2025,12:15:32.43,103.52,231.45,956.54,0.06,3.37,1.52,-27.45,78.90,45.75,34.74,9.972,
02/07/2025,12:15:32.53,106.45,255.86,974.61,0.63,0.01,-3.60,-26.40,78.90,46.50,34.69,9.972,
02/07/2025,12:15:32.64,100.59,234.86,958.01,0.24,2.76,-0.55,-25.65,80.40,45.75,34.93,9.972,
02/07/2025,12:15:32.74,103.52,248.54,963.38,0.28,-0.31,0.06,-25.50,79.95,47.40,34.83,9.972,
02/07/2025,12:15:32.84,94.24,236.82,969.24,0.85,1.26,0.52,-26.40,80.40,46.20,34.83,9.972,
02/07/2025,12:15:32.94,96.19,236.82,960.45,0.10,1.61,0.63,-28.65,80.10,45.45,34.74,9.972,
02/07/2025,12:15:33.04,104.49,237.30,951.66,0.12,2.62,-0.79,-25.80,79.50,46.35,34.69,9.973,
02/07/2025,12:15:33.14,88.87,228.52,958.98,0.67,0.67,-2.32,-27.45,77.70,47.25,34.93,9.973,
02/07/2025,12:15:33.24,103.03,239.26,967.77,0.98,-0.53,2.45,-25.65,80.10,47.25,34.74,9.973,
02/07/2025,12:15:33.34,110.84,217.29,945.31,-1.69,-1.99,2.92,-27.15,78.15,46.95,34.83,9.973,
02/07/2025,12:15:33.44,102.54,246.09,968.75,0.05,0.10,2.12,-26.40,79.35,46.20,34.69,9.973,
02/07/2025,12:15:33.54,102.05,237.79,981.45,0.52,-0.44,-0.02,-26.40,78.90,48.0,34.93,9.968,
02/07/2025,12:15:33.64,93.75,252.93,965.33,1.53,2.17,0.22,-27.30,79.05,47.10,34.69,9.968,
02/07/2025,12:15:33.74,107.91,233.40,963.87,1.25,0.89,-0.69,-26.25,78.75,47.40,34.88,9.968,
02/07/2025,12:15:33.85,88.38,234.38,974.12,0.05,0.73,-3.23,-27.45,78.90,45.75,34.93,9.969,
02/07/2025,12:15:33.95,97.17,235.84,971.68,1.07,1.54,-1.63,-25.50,80.25,46.05,34.69,9.969,
02/07/2025,12:15:34.05,100.59,238.77,958.01,-2.18,1.23,1.15,-25.20,80.10,46.95,34.74,9.969,
02/07/2025,12:15:34.15,104.00,234.86,966.80,0.27,0.73,2.58,-26.70,79.65,46.50,34.83,9.969,
02/07/2025,12:15:34.25,100.10,236.82,958.01,-0.40,1.69,-0.88,-27.30,78.75,47.10,34.83,9.969,
02/07/2025,12:15:34.35,102.05,229.00,963.87,1.14,1.74,1.27,-25.95,80.10,46.50,34.93,9.969,
02/07/2025,12:15:34.45,107.42,241.70,971.19,2.11,0.66,-1.30,-26.70,79.65,46.20,34.93,9.969,
02/07/2025,12:15:34.55,89.84,240.23,970.70,-0.74,0.22,0.20,-27.30,81.0,47.40,34.93,9.970,
02/07/2025,12:15:34.65,101.56,226.56,971.68,-0.35,1.68,1.63,-26.70,78.60,45.15,34.50,9.970,
02/07/2025,12:15:34.75,104.49,248.54,965.33,-0.21,0.50,1.90,-27.75,78.75,46.80,34.83,9.965,
02/07/2025,12:15:34.85,103.03,229.49,968.26,-0.03,-0.73,-0.03,-26.40,78.90,47.25,34.74,9.965,
02/07/2025,12:15:34.95,91.31,243.16,966.80,-0.02,0.20,-1.82,-25.95,79.35,45.75,34.83,9.965,
02/07/2025,12:15:35.05,105.96,225.59,955.08,0.38,0.52,0.09,-27.0,80.70,46.80,34.83,9.965,
02/07/2025,12:15:35.16,100.10,240.23,958.98,0.08,1.34,2.60,-26.25,80.25,47.85,34.74,9.966,
02/07/2025,12:15:35.26,105.96,242.68,981.93,0.73,-0.62,-1.30,-25.20,78.90,47.25,35.03,9.966,
02/07/2025,12:15:35.36,99.61,223.14,972.66,1.03,-0.69,0.40,-26.70,79.35,46.95,34.93,9.966,
02/07/2025,12:15:35.46,99.12,236.82,964.36,0.35,0.20,0.14,-27.15,78.90,45.75,34.83,9.966,
02/07/2025,12:15:35.56,92.77,239.26,966.31,0.70,2.29,2.11,-25.80,77.25,46.05,34.93,9.966,
02/07/2025,12:15:35.66,89.36,218.26,960.94,-0.62,0.68,1.47,-27.15,79.65,46.20,34.74,9.966,
02/07/2025,12:15:35.76,95.21,241.21,973.63,-2.40,2.80,-1.85,-25.95,78.60,46.20,34.50,9.967,
02/07/2025,12:15:35.86,95.70,238.77,949.22,-0.29,1.66,-0.66,-25.05,79.50,46.05,34.64,9.967,
02/07/2025,12:15:35.96,103.03,241.70,955.57,0.85,3.46,0.37,-24.45,78.90,46.95,34.64,9.967,
02/07/2025,12:15:36.06,88.38,241.70,968.26,-1.11,2.87,2.06,-25.65,79.65,46.20,34.69,9.962,
02/07/2025,12:15:36.16,114.26,238.77,965.33,-1.31,2.86,-1.62,-25.50,79.95,46.35,34.55,9.963,
02/07/2025,12:15:36.26,87.89,245.61,973.63,0.05,3.37,0.12,-25.50,79.50,46.80,34.64,9.963,
02/07/2025,12:15:36.37,97.66,229.98,964.36,-1.51,2.14,-2.98,-25.95,79.65,46.20,34.50,9.963,
02/07/2025,12:15:36.47,94.24,230.47,959.47,-0.68,3.10,-2.25,-26.70,78.60,45.75,34.64,9.963,
02/07/2025,12:15:36.57,104.49,239.26,962.89,-1.25,0.45,0.69,-28.50,78.75,46.35,34.50,9.963,
02/07/2025,12:15:36.67,102.05,236.33,966.31,-1.34,1.21,0.01,-25.80,80.25,46.35,34.74,9.963,
02/07/2025,12:15:36.77,104.00,247.56,972.17,-2.29,2.01,0.19,-27.0,80.25,46.35,34.69,9.964,
02/07/2025,12:15:36.87,100.10,230.47,972.17,-2.49,1.95,-3.06,-26.70,78.60,47.25,34.64,9.964,
02/07/2025,12:15:36.97,95.21,235.84,961.43,-1.85,1.27,-2.35,-27.0,78.30,47.40,34.69,9.964,
02/07/2025,12:15:37.07,104.00,231.45,959.96,0.10,0.44,-0.66,-26.70,78.60,46.95,34.93,9.964,
02/07/2025,12:15:37.17,99.61,243.16,964.84,-1.34,1.84,-0.17,-25.80,79.50,47.85,34.64,9.964,
02/07/2025,12:15:37.27,100.59,234.86,955.57,3.22,1.76,0.54,-25.50,80.25,46.80,34.83,9.960,
02/07/2025,12:15:37.37,99.61,238.77,965.82,-1.56,3.76,-2.58,-25.65,78.60,48.75,34.55,9.960,
02/07/2025,12:15:37.47,107.91,230.47,967.29,-0.15,1.03,-2.01,-27.15,80.40,45.75,34.93,9.960,
02/07/2025,12:15:37.57,95.70,235.84,973.14,0.08,-0.31,-1.03,-26.70,80.10,46.95,34.93,9.961,
02/07/2025,12:15:37.68,80.08,236.82,951.66,-0.47,3.43,0.71,-28.05,79.05,47.10,34.74,9.961,
02/07/2025,12:15:37.78,106.93,244.14,959.96,1.25,1.31,-2.58,-26.25,79.95,48.15,34.40,9.961,
02/07/2025,12:15:37.88,96.68,230.96,970.70,-1.03,2.30,2.73,-26.70,80.10,47.25,34.74,9.961,
02/07/2025,12:15:37.98,90.33,228.52,973.14,0.87,0.32,1.82,-27.30,78.75,46.80,34.74,9.961,
02/07/2025,12:15:38.08,99.12,239.75,967.77,-0.82,0.30,2.09,-26.40,80.10,48.0,34.69,9.961,
02/07/2025,12:15:38.18,103.03,238.77,964.36,-0.50,3.23,-0.98,-27.0,79.05,47.10,35.03,9.962,
02/07/2025,12:15:38.28,83.98,228.52,980.96,0.65,2.14,-0.92,-25.95,79.65,47.70,34.83,9.962,
02/07/2025,12:15:38.38,105.96,225.59,978.03,1.0,2.13,-1.63,-27.30,79.95,46.80,34.93,9.962,
02/07/2025,12:15:38.48,94.24,245.61,963.87,0.03,-0.91,-0.37,-26.55,79.05,47.85,34.83,9.962,
02/07/2025,12:15:38.58,97.17,242.68,962.89,1.26,2.89,-0.47,-25.50,79.50,46.35,35.03,9.958,
02/07/2025,12:15:38.68,109.38,245.61,957.52,-0.69,-0.39,2.69,-26.25,79.95,47.10,34.93,9.958,
02/07/2025,12:15:38.78,101.56,240.72,970.70,0.85,1.47,-0.53,-26.25,79.50,44.85,34.74,9.958,
02/07/2025,12:15:38.89,92.77,238.28,969.24,1.21,-0.02,-1.06,-27.75,79.65,48.75,34.74,9.959,
02/07/2025,12:15:38.99,97.17,227.54,959.47,0.96,1.40,3.23,-26.40,80.10,47.25,34.74,9.959,
02/07/2025,12:15:39.09,98.63,237.79,954.59,0.34,-0.56,2.35,-26.70,81.15,45.45,35.03,9.959,
02/07/2025,12:15:39.19,98.14,238.77,975.10,1.35,0.89,0.82,-25.80,79.50,47.40,34.74,9.959,
02/07/2025,12:15:39.29,108.40,249.02,947.27,0.60,0.42,0.96,-27.45,79.65,45.75,34.74,9.959,
02/07/2025,12:15:39.39,94.73,239.75,979.00,-0.69,3.02,-0.05,-26.55,79.50,47.40,34.93,9.959,
02/07/2025,12:15:39.49,89.84,231.93,964.36,-0.17,2.61,2.71,-26.40,80.10,46.95,34.93,9.960,
02/07/2025,12:15:39.59,99.12,233.89,976.56,0.04,0.97,-0.41,-27.90,78.90,46.20,34.88,9.960,
02/07/2025,12:15:39.69,101.07,225.10,956.05,1.38,0.36,1.16,-26.25,79.95,47.85,34.83,9.960,
02/07/2025,12:15:39.79,96.68,234.86,957.52,-2.08,4.42,0.82,-26.40,79.35,47.25,34.83,9.956,
02/07/2025,12:15:39.89,84.96,238.77,968.26,-0.75,2.15,-1.01,-27.75,80.25,46.05,34.74,9.956,
02/07/2025,12:15:39.99,97.66,239.75,962.89,0.01,0.92,-1.91,-26.55,80.70,47.10,34.74,9.956,
02/07/2025,12:15:40.09,73.73,253.91,960.45,-1.24,0.44,-2.56,-27.90,80.10,46.20,34.93,9.957,
02/07/2025,12:15:40.20,96.19,236.33,960.45,0.85,1.66,2.92,-27.15,79.35,47.25,34.69,9.957,
02/07/2025,12:15:40.30,96.68,247.07,976.56,1.69,-1.83,-3.13,-26.55,78.75,46.35,35.03,9.957,
02/07/2025,12:15:40.40,92.77,234.38,960.94,-0.42,0.79,-0.48,-25.95,78.60,47.25,34.74,9.957,
02/07/2025,12:15:40.50,100.10,235.35,963.38,2.34,2.87,-1.02,-26.55,80.25,47.40,34.83,9.957,
02/07/2025,12:15:40.60,101.07,239.26,955.57,-0.50,-1.32,0.86,-25.95,78.90,46.50,34.83,9.957,
02/07/2025,12:15:40.70,96.19,233.89,960.45,-0.17,2.37,-2.85,-26.70,81.60,46.95,34.74,9.958,
02/07/2025,12:15:40.80,100.59,222.66,966.80,-0.02,2.0,0.34,-26.40,78.90,47.25,34.83,9.958,
02/07/2025,12:15:40.90,101.07,233.40,969.73,1.99,2.05,-2.62,-27.0,79.95,47.10,34.69,9.958,
02/07/2025,12:15:41.00,108.89,234.86,964.36,-1.70,1.0,0.44,-25.20,78.90,47.25,34.93,9.958,
02/07/2025,12:15:41.10,104.00,232.91,969.73,0.75,-1.04,-0.31,-25.50,78.0,47.10,34.93,9.954,
02/07/2025,12:15:41.20,95.70,237.30,977.05,-0.05,0.70,1.98,-25.20,79.65,47.70,34.83,9.955,
02/07/2025,12:15:41.30,89.84,233.40,961.91,-0.12,0.53,2.34,-26.55,79.05,47.85,34.93,9.955,
02/07/2025,12:15:41.41,102.54,232.42,971.19,1.18,1.13,0.41,-26.70,78.90,46.95,34.74,9.955,
02/07/2025,12:15:41.51,93.26,229.49,968.75,1.23,2.44,0.47,-26.55,81.0,47.40,34.69,9.955,
02/07/2025,12:15:41.61,97.66,239.75,971.68,0.37,2.32,0.47,-26.25,79.50,47.10,34.83,9.955,
02/07/2025,12:15:41.71,91.31,248.05,962.89,-0.19,2.82,-2.61,-25.05,78.0,47.10,35.07,9.955,
02/07/2025,12:15:41.81,91.31,232.91,960.94,-0.33,0.74,-0.35,-25.95,79.65,46.95,34.74,9.956,
02/07/2025,12:15:41.91,104.00,224.12,971.19,0.20,0.89,1.21,-26.40,80.10,47.25,34.74,9.956,
02/07/2025,12:15:42.01,101.07,232.91,969.73,2.76,-0.31,3.56,-25.20,79.65,46.20,34.83,9.956,
02/07/2025,12:15:42.11,95.21,240.23,958.50,-1.41,-0.85,-0.52,-26.70,79.65,48.0,34.69,9.956,
02/07/2025,12:15:42.21,92.77,236.82,957.03,1.55,1.47,2.02,-26.25,79.95,46.80,34.88,9.956,
02/07/2025,12:15:42.31,95.21,230.96,959.96,0.27,1.29,-1.82,-25.95,80.40,47.70,34.69,9.953,
02/07/2025,12:15:42.41,95.21,237.30,958.01,0.73,0.46,0.15,-27.0,80.25,47.85,34.93,9.953,
02/07/2025,12:15:42.51,95.70,232.91,957.03,-1.21,0.93,1.43,-25.95,79.65,46.20,34.69,9.953,
02/07/2025,12:15:42.61,106.45,224.12,970.21,-1.76,0.92,0.02,-25.95,78.15,46.20,34.74,9.953,
02/07/2025,12:15:42.72,104.98,231.93,973.14,-1.34,2.08,-1.53,-27.15,78.90,46.50,34.93,9.953,
02/07/2025,12:15:42.82,103.03,231.93,969.24,-1.44,0.75,0.97,-25.95,80.40,47.70,34.74,9.954,
02/07/2025,12:15:42.92,93.75,234.86,966.31,-0.66,4.02,-1.11,-26.70,79.65,45.75,34.83,9.954,
02/07/2025,12:15:43.02,100.59,242.68,965.33,-1.17,0.58,1.28,-25.50,78.30,46.35,34.88,9.954,
02/07/2025,12:15:43.12,111.33,237.30,968.26,0.54,0.69,-1.68,-26.55,79.95,47.10,34.88,9.954,
02/07/2025,12:15:43.22,91.80,235.35,959.47,-1.40,2.86,-0.79,-27.0,80.25,46.80,34.74,9.954,
02/07/2025,12:15:43.32,95.21,244.14,954.59,-1.45,1.96,0.89,-27.15,80.85,46.95,34.83,9.954,
02/07/2025,12:15:43.42,109.86,222.17,962.40,-0.38,0.53,-0.64,-27.15,77.70,47.25,34.93,9.955,
02/07/2025,12:15:43.52,95.70,237.30,958.98,-1.85,1.84,-1.76,-27.15,80.40,46.20,35.22,9.955,
02/07/2025,12:15:43.62,91.31,248.05,963.38,-0.69,3.63,-3.03,-25.95,77.40,46.95,34.69,9.951,
02/07/2025,12:15:43.72,104.98,243.16,959.96,-1.42,2.59,-0.67,-25.65,77.40,47.25,34.83,9.952,
02/07/2025,12:15:43.82,107.91,229.00,962.89,0.09,-0.31,-3.73,-25.05,79.50,46.05,34.74,9.952,
02/07/2025,12:15:43.93,108.89,245.12,964.84,-1.15,2.44,-0.95,-27.30,79.50,46.35,34.93,9.952,
02/07/2025,12:15:44.03,98.63,229.98,965.33,0.70,0.53,-1.30,-25.80,79.95,47.40,34.64,9.952,
02/07/2025,12:15:44.13,96.19,238.77,967.77,-2.29,1.27,-1.31,-26.55,80.25,47.40,34.93,9.952,
02/07/2025,12:15:44.23,91.80,229.49,962.89,0.95,1.37,-1.85,-24.45,78.15,47.70,34.93,9.952,
02/07/2025,12:15:44.33,94.73,239.75,957.03,-1.25,3.02,-2.21,-25.80,79.95,46.05,34.88,9.953,
02/07/2025,12:15:44.43,99.61,230.96,968.26,-0.99,1.95,-1.93,-25.65,79.35,47.25,34.69,9.953,
02/07/2025,12:15:44.53,92.77,238.77,977.05,-1.31,1.84,-1.43,-26.70,80.10,47.70,35.07,9.953,
02/07/2025,12:15:44.63,102.05,237.30,966.31,1.98,-0.39,-0.79,-27.0,79.05,47.40,34.93,9.953,
02/07/2025,12:15:44.73,93.75,242.68,962.40,0.13,0.65,-1.39,-26.40,79.35,46.50,34.83,9.953,
02/07/2025,12:15:44.83,98.14,237.79,959.96,1.37,0.86,-1.50,-27.15,78.60,47.70,34.88,9.953,
02/07/2025,12:15:44.93,82.52,239.75,963.87,-0.37,2.06,-0.83,-27.0,79.95,46.35,34.93,9.950,
02/07/2025,12:15:45.03,90.82,230.96,962.89,1.80,1.46,3.56,-27.45,78.60,47.25,34.64,9.950,
02/07/2025,12:15:45.13,93.26,235.35,955.08,-0.44,2.64,-1.06,-25.20,79.35,46.50,34.88,9.951,
02/07/2025,12:15:45.24,110.35,242.19,962.40,-1.69,-0.15,0.09,-26.70,78.60,46.20,34.55,9.951,
02/07/2025,12:15:45.34,93.75,243.16,966.31,1.38,1.19,1.13,-28.20,80.85,46.95,34.74,9.951,
02/07/2025,12:15:45.44,101.56,239.26,967.77,0.46,1.11,0.32,-26.70,80.40,46.95,34.69,9.951,
02/07/2025,12:15:45.54,97.66,244.63,959.47,0.34,1.51,-0.11,-25.65,78.90,47.70,34.83,9.951,
02/07/2025,12:15:45.64,94.73,235.84,969.73,0.65,0.82,0.65,-26.40,78.15,46.50,34.50,9.951,
02/07/2025,12:15:45.74,94.24,240.72,958.50,-2.56,1.62,-2.08,-28.20,78.60,47.70,34.83,9.952,
02/07/2025,12:15:45.84,97.66,242.68,968.75,-0.87,2.69,-0.64,-25.95,79.65,47.70,34.69,9.952,
02/07/2025,12:15:45.94,102.54,228.52,965.33,-1.47,2.30,-1.34,-26.25,79.95,46.35,34.74,9.952,
02/07/2025,12:15:46.04,100.59,237.30,961.91,-0.27,3.56,0.40,-26.25,79.05,45.60,34.93,9.952,
02/07/2025,12:15:46.14,81.54,237.79,962.89,-1.60,1.35,-0.72,-26.55,79.95,46.35,34.88,9.949,
02/07/2025,12:15:46.24,92.77,245.12,970.70,-0.87,0.37,0.41,-26.40,79.65,46.50,34.64,9.949,
02/07/2025,12:15:46.34,106.93,232.91,967.77,-1.31,-0.40,-1.28,-28.05,79.05,46.05,34.69,9.949,
02/07/2025,12:15:46.44,99.12,241.21,961.43,-0.38,0.92,-0.99,-25.65,80.10,47.25,34.93,9.949,
02/07/2025,12:15:46.55,101.07,235.35,974.12,-0.98,0.17,-2.99,-26.70,78.90,46.20,34.55,9.950,
02/07/2025,12:15:46.65,89.36,242.68,967.29,-0.94,1.21,-0.69,-27.45,80.10,45.15,34.83,9.950,
02/07/2025,12:15:46.75,103.03,246.58,967.29,-0.98,4.37,-0.85,-27.0,80.70,47.85,34.83,9.950,
02/07/2025,12:15:46.85,106.45,241.21,969.73,-0.82,1.55,0.07,-25.95,79.35,46.95,34.74,9.950,
02/07/2025,12:15:46.95,98.14,228.03,960.94,3.80,3.09,0.05,-27.15,80.40,46.95,34.64,9.950,
02/07/2025,12:15:47.05,94.24,237.30,971.19,-0.98,2.56,1.02,-27.0,79.05,47.85,34.69,9.950,
02/07/2025,12:15:47.15,95.21,217.77,964.84,1.37,-0.27,1.57,-26.40,80.40,45.15,34.55,9.951,
02/07/2025,12:15:47.25,101.56,226.56,960.94,0.11,1.79,-0.87,-26.40,79.65,46.50,34.55,9.951,
02/07/2025,12:15:47.35,94.73,241.21,967.29,1.71,2.41,-1.21,-24.75,81.75,46.05,34.50,9.951,
02/07/2025,12:15:47.45,100.10,229.98,963.38,-2.85,0.51,-0.87,-25.50,79.50,47.10,34.64,9.948,
02/07/2025,12:15:47.55,94.24,232.91,968.75,-1.02,1.29,1.20,-27.45,79.65,45.75,34.64,9.948,
02/07/2025,12:15:47.65,94.73,231.93,971.19,-0.29,0.63,-0.21,-25.80,79.50,48.60,34.93,9.948,
02/07/2025,12:15:47.76,95.70,234.38,978.52,0.40,0.11,-0.21,-25.95,78.15,47.25,34.64,9.948,
02/07/2025,12:15:47.86,105.47,228.03,977.54,1.24,0.11,0.81,-26.55,78.75,46.35,34.40,9.949,
02/07/2025,12:15:47.96,90.33,239.75,963.87,-0.40,-0.45,-0.31,-26.25,80.25,46.80,34.64,9.949,
02/07/2025,12:15:48.06,95.21,221.19,969.73,-0.09,1.48,0.24,-25.05,79.05,46.35,34.69,9.949,
02/07/2025,12:15:48.16,98.14,230.47,967.29,-0.50,-0.79,1.67,-25.95,79.35,46.95,34.50,9.949,
02/07/2025,12:15:48.26,97.17,239.26,968.75,-0.73,1.22,-0.91,-25.50,81.0,47.85,34.74,9.949,
02/07/2025,12:15:48.36,104.49,234.86,962.89,-1.45,1.57,-0.28,-25.80,79.50,47.40,34.64,9.949,
02/07/2025,12:15:48.46,113.77,243.16,968.75,-0.18,2.79,0.69,-25.20,79.65,48.0,34.50,9.950,
02/07/2025,12:15:48.56,88.87,244.14,964.84,0.20,-0.05,2.15,-25.95,78.90,45.15,34.69,9.950,
02/07/2025,12:15:48.66,97.17,239.26,965.33,-0.82,2.63,-0.65,-26.25,79.05,46.35,34.74,9.950,
02/07/2025,12:15:48.76,93.75,231.45,959.96,-0.47,2.54,-0.90,-25.80,80.70,47.10,34.83,9.947,
02/07/2025,12:15:48.86,92.77,235.84,972.17,-2.34,0.85,-2.33,-27.75,79.05,47.10,34.69,9.947,
02/07/2025,12:15:48.96,99.61,236.33,974.61,-0.21,2.01,-1.48,-27.0,81.45,47.85,34.83,9.947,
02/07/2025,12:15:49.07,91.31,238.77,967.29,0.55,1.82,-1.85,-24.30,79.50,46.05,34.69,9.947,
02/07/2025,12:15:49.17,105.47,236.82,967.77,-1.63,-0.28,-1.89,-26.40,78.90,46.50,34.83,9.948,
02/07/2025,12:15:49.27,110.35,234.86,965.82,0.91,1.79,0.73,-27.30,80.25,47.40,34.83,9.948,
02/07/2025,12:15:49.37,102.05,229.00,959.96,-2.24,1.56,-2.17,-25.50,78.30,46.35,34.93,9.948,
02/07/2025,12:15:49.47,105.96,233.40,971.19,-1.07,1.27,1.22,-26.55,79.50,46.35,34.74,9.948,
02/07/2025,12:15:49.57,102.05,230.96,967.77,-1.56,1.63,-2.45,-26.55,79.50,46.05,34.64,9.948,
02/07/2025,12:15:49.67,100.59,244.63,961.43,0.24,3.28,-2.18,-25.65,78.15,45.75,34.69,9.948,
02/07/2025,12:15:49.77,97.66,236.82,962.89,-2.16,2.32,0.16,-27.0,79.50,46.35,34.64,9.949,
02/07/2025,12:15:49.87,87.89,228.52,965.33,-2.08,0.71,0.70,-27.0,79.05,46.05,34.69,9.949,
02/07/2025,12:15:49.97,98.63,233.89,971.68,-0.80,-0.15,-1.93,-26.25,79.05,46.80,34.74,9.946,
02/07/2025,12:15:50.07,89.84,232.91,955.57,0.98,0.06,0.81,-25.65,77.70,45.75,35.07,9.946,
02/07/2025,12:15:50.17,97.17,247.56,968.26,1.60,0.31,1.61,-25.80,79.50,46.35,34.93,9.946,
02/07/2025,12:15:50.28,90.33,228.03,964.36,1.16,1.35,-1.30,-27.15,78.90,45.75,34.69,9.946,
02/07/2025,12:15:50.38,90.33,242.19,967.29,-1.58,1.89,-1.71,-27.75,80.25,47.40,34.74,9.947,
02/07/2025,12:15:50.48,100.10,232.91,960.94,0.74,0.72,0.08,-26.25,79.50,47.10,34.93,9.947,
02/07/2025,12:15:50.58,109.38,239.26,961.43,-0.72,1.80,-0.89,-26.25,79.95,46.05,34.64,9.947,
02/07/2025,12:15:50.68,109.86,234.86,961.43,-0.55,-1.28,-0.34,-25.80,79.95,47.10,35.07,9.947,
02/07/2025,12:15:50.78,100.10,237.30,972.17,1.21,1.15,1.05,-27.15,79.65,46.95,34.74,9.947,
02/07/2025,12:15:50.88,99.12,225.10,973.14,0.02,0.73,1.69,-26.40,78.60,47.25,34.55,9.947,
02/07/2025,12:15:50.98,95.21,241.21,971.19,-0.11,1.50,1.66,-27.30,79.95,47.40,34.74,9.947,
02/07/2025,12:15:51.08,114.26,245.61,974.12,1.08,0.42,-0.33,-25.95,79.65,46.50,34.93,9.948,
02/07/2025,12:15:51.18,85.94,223.63,964.36,-0.82,2.24,0.53,-25.50,79.50,46.80,34.74,9.948,
02/07/2025,12:15:51.28,100.59,229.49,977.05,-1.60,1.87,-0.47,-24.45,78.15,47.25,35.07,9.945,
02/07/2025,12:15:51.38,97.66,238.28,970.70,-1.38,2.75,-1.77,-28.20,78.90,45.75,34.74,9.945,
02/07/2025,12:15:51.48,94.73,237.30,967.29,-0.67,3.42,-0.52,-26.25,79.50,46.80,34.74,9.946,
02/07/2025,12:15:51.59,91.31,223.14,960.45,0.40,1.65,1.17,-25.80,79.50,45.30,34.69,9.946,
02/07/2025,12:15:51.69,98.63,251.95,970.70,-0.95,0.49,-1.03,-27.90,80.85,47.70,34.74,9.946,
02/07/2025,12:15:51.79,103.52,241.70,963.38,-0.17,-0.79,1.35,-25.50,80.25,46.80,34.64,9.946,
02/07/2025,12:15:51.89,100.10,231.45,969.73,0.48,1.06,-1.63,-25.95,80.10,48.0,34.69,9.946,
02/07/2025,12:15:51.99,113.77,243.16,970.70,1.13,1.31,2.15,-26.70,78.60,46.20,34.64,9.946,
02/07/2025,12:15:52.09,92.29,236.82,963.87,0.52,2.47,-0.73,-26.25,80.70,45.30,34.69,9.946,
02/07/2025,12:15:52.19,91.31,229.98,963.87,-0.15,1.46,-1.25,-26.40,79.35,46.20,34.93,9.947,
02/07/2025,12:15:52.29,93.26,245.12,968.75,-0.69,-0.23,1.18,-25.80,79.95,47.85,34.83,9.947,
02/07/2025,12:15:52.39,100.10,235.84,963.38,-0.37,0.05,-0.26,-25.50,81.0,46.05,34.93,9.947,
02/07/2025,12:15:52.49,104.49,239.26,970.21,1.44,0.68,2.79,-25.95,77.70,47.25,34.69,9.947,
02/07/2025,12:15:52.59,104.49,240.72,968.75,-0.49,0.20,-2.0,-26.40,80.10,48.30,34.50,9.944,
02/07/2025,12:15:52.69,96.19,238.77,970.70,-0.85,1.07,1.89,-27.30,79.05,47.10,34.50,9.945,
02/07/2025,12:15:52.80,88.87,232.91,958.01,0.02,2.76,-1.87,-25.05,80.25,46.80,34.55,9.945,
02/07/2025,12:15:52.90,97.66,237.79,962.89,-1.10,4.19,0.99,-25.80,78.75,47.10,34.55,9.945,
02/07/2025,12:15:53.00,102.05,243.65,973.63,-1.36,2.12,0.35,-25.20,78.60,46.95,34.55,9.945,
02/07/2025,12:15:53.10,104.00,238.77,969.73,-0.39,1.63,2.15,-26.40,79.65,46.95,34.64,9.945,
02/07/2025,12:15:53.20,101.56,235.35,962.89,0.39,1.15,-0.96,-26.55,79.05,46.80,34.50,9.945,
02/07/2025,12:15:53.30,96.68,234.38,966.80,-0.11,0.31,-1.31,-26.25,80.25,46.35,34.55,9.945,
02/07/2025,12:15:53.40,96.19,237.79,963.87,0.56,-1.76,-2.24,-26.40,78.60,46.95,34.74,9.946,
02/07/2025,12:15:53.50,88.87,243.16,965.82,0.12,-0.72,1.95,-25.20,80.40,46.50,35.07,9.946,
02/07/2025,12:15:53.60,100.59,238.77,961.43,-0.90,-2.64,-1.26,-27.30,79.05,48.15,34.74,9.946,
02/07/2025,12:15:53.70,100.10,236.82,969.24,1.19,0.97,-2.32,-25.80,78.75,46.35,34.74,9.946,
02/07/2025,12:15:53.80,92.77,236.82,960.94,-1.13,-0.52,-3.75,-25.95,80.85,45.75,34.74,9.944,
02/07/2025,12:15:53.90,95.70,238.77,976.07,-0.93,-0.79,0.98,-26.70,79.35,47.25,34.64,9.944,
02/07/2025,12:15:54.00,96.19,232.42,974.61,-0.40,1.79,0.26,-25.95,80.40,45.75,34.69,9.944,
02/07/2025,12:15:54.11,101.56,233.40,963.87,-1.78,3.08,-0.42,-25.80,81.0,47.40,34.88,9.944,
02/07/2025,12:15:54.21,94.73,238.77,969.24,-1.25,2.53,-2.05,-27.0,80.70,46.35,34.64,9.944,
02/07/2025,12:15:54.31,107.91,225.59,967.29,-2.25,3.89,-2.51,-26.25,79.50,46.80,34.93,9.944,
02/07/2025,12:15:54.41,97.17,232.42,966.31,0.57,2.08,-0.36,-25.50,79.95,46.35,35.07,9.944,
02/07/2025,12:15:54.51,98.63,226.07,963.38,-0.74,1.31,-2.70,-27.0,78.75,46.05,34.83,9.945,
02/07/2025,12:15:54.61,92.77,236.33,956.05,-1.36,1.05,0.66,-25.65,79.65,47.70,34.69,9.945,
02/07/2025,12:15:54.71,98.63,233.40,969.73,-1.16,1.66,-0.37,-27.90,80.40,47.25,34.74,9.945,
02/07/2025,12:15:54.81,101.56,240.23,976.07,0.05,0.22,-1.34,-27.15,78.15,47.70,34.74,9.945,
02/07/2025,12:15:54.91,100.59,231.93,966.80,1.34,3.09,-1.11,-26.25,78.75,47.10,34.74,9.945,
02/07/2025,12:15:55.01,95.70,235.35,958.98,0.34,2.37,-3.14,-27.15,79.65,45.75,34.74,9.945,
02/07/2025,12:15:55.11,96.68,235.84,966.80,0.43,0.76,1.79,-27.15,79.35,46.50,35.07,9.943,
02/07/2025,12:15:55.21,86.43,231.93,969.73,-0.42,0.08,3.33,-25.20,80.85,45.75,34.74,9.943,
02/07/2025,12:15:55.31,99.12,234.86,959.96,1.51,1.51,0.96,-26.70,78.60,45.45,34.74,9.943,
02/07/2025,12:15:55.42,93.26,235.84,965.33,-1.51,0.30,-2.47,-25.50,78.75,48.60,34.69,9.943,
02/07/2025,12:15:55.52,99.61,234.86,967.77,-1.27,5.02,-1.64,-27.30,78.75,47.10,34.74,9.944,
02/07/2025,12:15:55.62,94.73,235.84,965.82,-3.16,-0.40,-3.31,-26.55,79.05,46.05,34.83,9.944,
02/07/2025,12:15:55.72,87.40,229.98,959.47,0.28,2.56,-2.01,-25.95,78.15,46.95,34.74,9.944,
02/07/2025,12:15:55.82,98.14,229.49,951.66,-2.06,0.67,-2.27,-26.25,79.05,46.35,34.74,9.944,
02/07/2025,12:15:55.92,99.61,234.86,970.70,0.15,2.0,-1.73,-25.80,79.05,46.05,34.93,9.944,
02/07/2025,12:15:56.02,94.24,231.93,959.96,0.69,-0.60,-1.05,-25.95,79.35,47.25,34.40,9.944,
02/07/2025,12:15:56.12,102.54,233.40,971.19,0.27,0.71,-1.28,-26.70,80.10,47.70,34.40,9.944,
02/07/2025,12:15:56.22,88.38,235.35,965.33,0.37,1.04,0.39,-26.55,78.0,47.85,34.40,9.944,
02/07/2025,12:15:56.32,89.84,235.35,971.68,-0.44,0.12,-0.79,-25.80,79.50,46.80,34.55,9.945,
02/07/2025,12:15:56.42,94.24,229.49,968.26,1.56,0.76,-1.80,-27.75,77.55,45.60,34.55,9.942,
02/07/2025,12:15:56.52,92.29,231.93,961.43,-0.77,-0.08,-0.14,-26.70,80.10,46.50,34.64,9.943,
02/07/2025,12:15:56.62,107.42,234.38,963.38,0.08,4.53,0.37,-26.25,80.70,46.80,34.74,9.943,
02/07/2025,12:15:56.73,92.29,237.79,961.91,-1.05,3.49,-1.70,-25.20,80.85,46.95,34.69,9.943,
02/07/2025,12:15:56.83,97.17,238.28,969.73,0.09,0.60,-1.27,-26.70,78.90,47.70,34.83,9.943,
02/07/2025,12:15:56.93,104.00,241.21,959.96,-0.88,2.44,-1.34,-26.55,79.95,46.80,34.64,9.943,
02/07/2025,12:15:57.03,97.66,239.26,972.17,0.0,0.46,-3.39,-27.15,78.60,47.25,34.69,9.943,
02/07/2025,12:15:57.13,102.05,241.70,971.68,-1.63,2.40,0.07,-25.80,79.05,45.60,34.69,9.943,
02/07/2025,12:15:57.23,100.10,240.72,963.87,0.34,0.32,0.94,-26.25,79.05,47.10,34.64,9.943,
02/07/2025,12:15:57.33,104.49,232.91,964.84,-1.61,0.41,1.92,-27.15,80.10,45.75,34.74,9.944,
02/07/2025,12:15:57.43,95.70,231.45,970.70,0.77,1.08,1.07,-26.40,80.10,46.50,34.64,9.944,
02/07/2025,12:15:57.53,95.70,231.93,963.87,-1.01,1.18,0.34,-26.40,80.10,47.70,34.74,9.944,
02/07/2025,12:15:57.63,96.19,245.12,967.29,-2.56,1.63,0.20,-26.55,80.25,46.80,34.74,9.944,
02/07/2025,12:15:57.73,90.82,230.47,958.50,-0.95,2.24,-2.40,-26.25,78.75,47.40,34.55,9.942,
02/07/2025,12:15:57.83,87.40,242.19,959.96,-1.76,0.59,-0.96,-25.05,78.30,48.15,34.55,9.942,
02/07/2025,12:15:57.93,105.47,233.40,957.52,0.24,3.45,-1.38,-27.30,78.75,46.80,34.64,9.942,
02/07/2025,12:15:58.04,76.17,231.45,965.82,-0.03,1.34,-0.40,-26.25,80.70,47.10,34.69,9.942,
02/07/2025,12:15:58.14,107.42,230.96,971.68,-0.76,-0.63,0.62,-26.55,79.95,46.05,34.83,9.942,
02/07/2025,12:15:58.24,93.75,227.54,970.70,-0.80,1.96,0.08,-27.75,79.50,46.80,34.74,9.942,
02/07/2025,12:15:58.34,96.19,239.75,967.29,-1.60,-0.02,1.82,-27.15,79.65,46.95,34.55,9.943,
02/07/2025,12:15:58.44,96.68,243.16,956.54,-1.38,0.62,-1.21,-27.75,79.05,46.05,34.69,9.943,
02/07/2025,12:15:58.54,100.59,240.23,969.24,0.50,-0.75,-0.88,-26.70,77.70,47.25,34.93,9.943,
02/07/2025,12:15:58.64,94.24,238.77,970.21,1.19,0.76,-0.77,-27.0,79.50,46.80,34.69,9.943,
02/07/2025,12:15:58.74,96.19,229.49,966.31,0.05,0.97,-0.05,-26.55,80.25,46.05,34.64,9.943,
02/07/2025,12:15:58.84,97.66,229.49,956.05,-1.68,2.53,-0.42,-27.0,79.50,47.40,34.50,9.943,
02/07/2025,12:15:58.94,98.63,236.82,965.33,-0.87,2.42,-0.34,-26.25,79.05,45.60,34.50,9.943,
02/07/2025,12:15:59.04,100.59,229.00,960.94,-0.04,3.47,-3.18,-27.75,78.75,48.15,34.69,9.941,
02/07/2025,12:15:59.14,95.70,239.75,966.31,-0.86,1.86,-3.47,-25.20,80.85,46.20,34.36,9.941,
02/07/2025,12:15:59.24,95.21,238.77,964.84,-1.67,0.90,-3.29,-25.50,78.75,46.80,34.40,9.942,
02/07/2025,12:15:59.35,87.89,234.86,969.24,0.36,2.13,1.34,-27.75,79.05,45.60,34.64,9.942,
02/07/2025,12:15:59.45,94.73,224.61,969.73,-0.93,1.07,-1.76,-25.50,79.95,47.40,34.64,9.942,
02/07/2025,12:15:59.55,89.84,245.61,964.36,1.73,0.44,-2.63,-24.75,79.05,46.35,34.55,9.942,
02/07/2025,12:15:59.65,98.63,230.47,971.68,0.97,1.21,2.08,-28.05,79.05,47.40,34.64,9.942,
02/07/2025,12:15:59.75,95.21,229.49,962.89,-0.78,2.36,-0.54,-28.20,77.70,47.25,34.69,9.942,
02/07/2025,12:15:59.85,89.36,229.00,963.87,-1.34,2.74,-2.60,-24.30,78.30,46.80,34.50,9.942,
02/07/2025,12:15:59.95,95.70,231.45,967.77,-0.11,2.15,-2.74,-26.25,80.25,47.40,34.55,9.942,
02/07/2025,12:16:00.05,106.45,223.14,968.75,-2.69,1.85,-1.42,-26.40,79.35,46.95,34.64,9.943,
02/07/2025,12:16:00.15,90.33,240.23,964.36,-1.33,2.86,-2.18,-26.55,79.05,47.40,34.64,9.943,
02/07/2025,12:16:00.25,83.01,174.80,995.12,0.01,1.95,-1.90,-25.95,78.60,46.50,34.55,9.941,
02/07/2025,12:16:00.35,101.07,228.03,975.10,0.50,1.62,1.05,-25.65,79.65,46.50,34.69,9.941,
02/07/2025,12:16:00.45,102.05,242.68,972.17,1.46,0.98,-2.95,-26.25,79.05,46.80,34.40,9.941,
02/07/2025,12:16:00.56,101.56,233.89,965.82,-1.03,1.31,-0.27,-27.0,79.50,47.40,34.40,9.941,
02/07/2025,12:16:00.66,91.80,228.52,964.36,0.48,1.61,1.72,-27.0,79.95,46.80,34.93,9.941,
02/07/2025,12:16:00.76,100.59,234.38,976.56,0.02,2.38,-0.18,-26.70,77.70,46.95,34.74,9.941,
02/07/2025,12:16:00.86,87.89,230.96,958.98,-1.11,2.18,0.05,-26.25,78.75,45.60,34.64,9.941,
02/07/2025,12:16:00.96,94.73,235.35,966.31,-1.38,3.79,2.15,-24.75,78.75,45.60,34.74,9.942,
02/07/2025,12:16:01.06,98.14,243.65,966.80,-0.85,1.86,1.10,-25.80,80.25,47.10,35.03,9.942,
02/07/2025,12:16:01.16,94.24,241.21,964.36,-1.24,1.74,-1.92,-27.0,79.95,46.80,34.55,9.942,
02/07/2025,12:16:01.26,96.68,246.58,963.38,-1.40,2.85,-0.31,-24.45,80.40,46.95,34.69,9.942,
02/07/2025,12:16:01.36,101.56,240.72,976.56,0.09,1.66,1.31,-26.40,76.95,46.50,34.36,9.942,
02/07/2025,12:16:01.46,95.21,224.12,963.87,1.34,2.66,0.06,-26.25,79.05,47.10,34.64,9.942,
02/07/2025,12:16:01.56,97.66,235.84,954.10,0.43,3.43,-0.11,-25.80,80.25,45.30,34.40,9.940,
02/07/2025,12:16:01.66,97.17,231.93,972.66,0.10,0.01,-1.53,-25.80,80.25,46.35,34.50,9.940,
02/07/2025,12:16:01.76,102.05,232.91,969.73,-0.19,1.28,0.77,-26.25,78.75,47.10,34.69,9.940,
02/07/2025,12:16:01.87,95.70,237.30,965.33,-2.35,1.80,-3.08,-27.30,79.95,46.80,34.64,9.941,
02/07/2025,12:16:01.97,99.61,241.70,964.84,-3.23,5.60,-0.92,-26.40,79.65,48.30,34.64,9.941,
02/07/2025,12:16:02.07,89.36,243.16,961.91,-0.69,2.66,-1.25,-25.80,79.95,47.40,34.55,9.941,
02/07/2025,12:16:02.17,101.56,241.21,979.00,-0.34,0.71,0.27,-25.95,79.35,48.0,34.64,9.941,
02/07/2025,12:16:02.27,101.07,230.47,972.17,0.46,1.11,0.03,-24.90,78.90,46.20,34.83,9.941,
02/07/2025,12:16:02.37,91.31,245.61,965.33,0.67,1.47,2.87,-25.50,78.30,46.80,34.74,9.941,
02/07/2025,12:16:02.47,98.63,241.21,964.36,0.34,2.79,1.02,-27.0,80.70,46.80,34.64,9.941,
02/07/2025,12:16:02.57,105.96,221.68,979.98,1.05,0.96,-0.41,-26.40,79.65,46.50,34.69,9.941,
02/07/2025,12:16:02.67,217.77,248.05,958.01,-1.84,3.34,2.92,-27.15,80.10,47.25,34.93,9.942,
02/07/2025,12:16:02.77,113.77,281.74,1062.01,-3.49,30.76,-3.86,-25.05,79.05,46.80,34.69,9.942,
02/07/2025,12:16:02.87,-12.21,177.73,923.34,5.07,40.80,4.44,-23.40,77.40,46.95,34.74,9.940,
02/07/2025,12:16:02.97,-77.15,166.99,876.46,-49.49,150.50,-27.84,-20.55,78.0,49.65,34.74,9.940,
02/07/2025,12:16:03.07,-583.01,35.64,1041.50,-142.93,164.52,9.63,-5.70,72.0,52.80,34.50,9.940,
02/07/2025,12:16:03.18,-971.68,-114.75,1253.42,28.07,-48.26,-7.11,0.15,64.65,54.90,34.69,9.940,
02/07/2025,12:16:03.28,-179.69,-340.33,671.39,-29.18,-158.18,-37.94,-11.25,64.95,57.0,34.64,9.940,
02/07/2025,12:16:03.38,-62.99,-120.12,945.31,-66.01,36.05,4.11,-15.45,61.95,56.10,34.74,9.940,
02/07/2025,12:16:03.48,-245.61,-141.11,1079.59,65.42,118.82,2.79,-11.55,57.60,57.75,34.55,9.940,
02/07/2025,12:16:03.58,-286.62,-53.22,871.58,84.63,54.85,-18.02,-4.20,64.65,51.0,34.55,9.941,
02/07/2025,12:16:03.68,-248.05,-16.11,895.02,17.75,0.29,-16.80,-4.65,67.05,49.05,34.50,9.941,
02/07/2025,12:16:03.78,-465.33,125.49,807.62,61.45,-41.39,5.83,-4.65,70.05,44.70,34.64,9.941,
02/07/2025,12:16:03.88,-500.0,247.07,703.13,59.32,-11.26,6.25,-7.50,72.15,40.95,34.36,9.941,
02/07/2025,12:16:03.98,-488.77,254.39,747.56,-48.06,41.50,21.90,-6.90,70.80,41.10,34.40,9.941,
02/07/2025,12:16:04.08,-387.70,206.05,949.71,101.16,-80.85,22.44,-9.0,71.10,40.20,34.64,9.941,
02/07/2025,12:16:04.18,-222.66,236.33,742.19,-159.24,-30.02,112.24,-15.90,70.80,40.65,34.74,9.939,
02/07/2025,12:16:04.28,-173.83,8.30,826.17,-54.40,-104.17,85.05,-22.95,64.35,46.95,34.83,9.939,
02/07/2025,12:16:04.38,178.71,-276.86,1231.93,-109.92,1.80,52.36,-27.15,54.75,52.35,34.74,9.940,
02/07/2025,12:16:04.49,-67.38,-257.81,1275.88,11.69,-0.89,14.03,-28.50,51.0,54.75,34.64,9.940,
02/07/2025,12:16:04.59,-93.75,-105.96,692.87,-43.04,28.08,24.24,-29.55,51.75,52.65,34.55,9.940,
02/07/2025,12:16:04.69,-83.50,-292.48,595.21,135.16,50.66,-36.16,-25.05,54.45,54.75,34.74,9.940,
02/07/2025,12:16:04.79,-113.28,16.60,887.70,65.23,-10.20,-12.77,-24.90,60.15,50.25,34.64,9.940,
02/07/2025,12:16:04.89,-119.14,154.79,1042.97,-22.31,0.34,-1.24,-27.0,64.95,47.40,34.50,9.940,
02/07/2025,12:16:04.99,-43.46,157.23,953.61,-29.84,-6.25,6.65,-28.80,63.30,49.65,34.50,9.940,
02/07/2025,12:16:05.09,-167.48,83.50,875.0,-24.65,14.39,-3.50,-28.95,64.35,48.30,34.74,9.940,
02/07/2025,12:16:05.19,-40.53,100.59,976.07,-13.15,-14.83,4.98,-29.70,62.40,48.30,34.64,9.940,
02/07/2025,12:16:05.29,-45.90,117.68,990.72,1.54,1.21,0.60,-29.70,65.85,48.30,34.40,9.941,
02/07/2025,12:16:05.39,-26.37,133.30,992.68,1.96,-0.11,1.35,-30.30,63.30,47.40,34.64,9.941,
02/07/2025,12:16:05.49,-32.71,127.93,996.58,0.38,-0.30,-0.35,-31.65,62.70,47.70,34.36,9.939,
02/07/2025,12:16:05.59,19.53,187.99,1032.23,4.35,-5.15,-1.02,-31.05,64.95,46.05,34.40,9.939,
02/07/2025,12:16:05.69,-35.64,115.23,962.40,9.02,-3.40,-1.0,-30.90,63.90,47.70,34.50,9.939,
02/07/2025,12:16:05.80,0.49,146.97,989.75,-1.65,3.73,-1.60,-32.25,64.50,47.40,34.55,9.939,
02/07/2025,12:16:05.90,-8.79,159.67,985.84,0.37,1.98,1.24,-32.55,64.95,46.80,34.40,9.939,
02/07/2025,12:16:06.00,-3.91,128.42,987.30,-0.32,0.50,-2.54,-30.90,63.15,48.0,34.31,9.939,
02/07/2025,12:16:06.10,6.35,141.11,989.26,0.79,1.89,-0.37,-31.65,63.60,46.95,34.21,9.940,
02/07/2025,12:16:06.20,5.37,151.86,982.42,-1.77,-0.86,1.66,-31.50,63.75,46.05,34.36,9.940,
02/07/2025,12:16:06.30,5.37,142.09,987.30,1.69,4.17,2.02,-30.75,65.25,46.80,34.36,9.940,
02/07/2025,12:16:06.40,-2.44,156.25,994.63,-0.11,0.79,-0.59,-31.80,65.25,46.80,34.36,9.940,
02/07/2025,12:16:06.50,-9.28,140.63,990.23,-2.25,4.04,-0.27,-32.55,64.05,46.80,34.40,9.940,
02/07/2025,12:16:06.60,9.28,156.25,990.72,-0.55,2.45,-1.54,-31.05,63.30,47.40,34.50,9.940,
02/07/2025,12:16:06.70,3.42,144.53,982.42,-1.53,1.28,-1.21,-30.0,65.25,48.15,34.55,9.940,
02/07/2025,12:16:06.80,5.86,139.16,995.12,-0.28,0.22,-1.34,-31.20,64.35,46.50,34.55,9.938,
02/07/2025,12:16:06.90,-11.72,143.55,995.12,-2.37,3.26,0.36,-30.45,63.90,46.95,34.64,9.939,
02/07/2025,12:16:07.01,-1.95,171.39,991.70,1.89,0.62,0.62,-31.20,64.35,46.50,34.55,9.939,
02/07/2025,12:16:07.11,6.84,143.55,996.09,-0.41,-0.25,1.50,-32.40,63.90,47.25,34.50,9.939,
02/07/2025,12:16:07.21,9.77,154.79,998.54,0.44,0.63,0.16,-32.70,65.40,46.95,34.50,9.939,
02/07/2025,12:16:07.31,6.84,159.18,983.89,0.75,2.90,-0.11,-31.20,64.35,46.50,34.64,9.939,
02/07/2025,12:16:07.41,5.37,156.25,991.70,-2.19,1.92,-0.60,-31.05,64.95,48.15,34.50,9.939,
02/07/2025,12:16:07.51,-3.91,149.41,990.23,-1.95,2.47,-3.66,-31.20,62.40,47.25,34.64,9.939,
02/07/2025,12:16:07.61,-3.42,141.60,993.16,-1.41,2.0,-0.87,-31.50,63.30,46.80,34.64,9.939,
02/07/2025,12:16:07.71,10.25,152.83,979.00,0.0,0.25,-2.08,-29.70,64.65,45.75,34.55,9.940,
02/07/2025,12:16:07.81,10.25,151.86,991.21,-1.13,0.90,-1.33,-31.20,64.65,47.25,34.64,9.940,
02/07/2025,12:16:07.91,0.49,163.57,989.75,-0.91,-0.98,-0.59,-30.30,64.05,47.10,34.50,9.940,
02/07/2025,12:16:08.01,4.88,145.02,990.72,-0.85,1.45,-1.34,-31.20,65.40,46.20,34.55,9.940,
02/07/2025,12:16:08.11,4.88,148.93,982.42,-1.62,1.49,1.53,-31.50,64.50,46.05,34.69,9.938,
02/07/2025,12:16:08.21,8.30,160.16,993.16,0.47,3.02,-1.75,-31.65,64.65,46.50,34.40,9.938,
02/07/2025,12:16:08.32,10.25,151.37,978.52,-0.40,1.25,-2.60,-32.40,65.10,46.95,34.12,9.938,
02/07/2025,12:16:08.42,-1.95,147.95,990.72,-1.85,2.41,-0.70,-31.80,64.05,47.10,34.50,9.938,
02/07/2025,12:16:08.52,6.35,153.81,995.61,-0.54,0.09,-0.03,-31.20,64.65,46.50,34.21,9.939,
02/07/2025,12:16:08.62,-11.23,157.71,988.28,-1.38,1.91,-0.82,-31.05,64.50,46.05,34.40,9.939,
02/07/2025,12:16:08.72,7.32,155.27,979.49,0.02,2.31,1.47,-32.70,64.65,46.20,34.55,9.939,
02/07/2025,12:16:08.82,12.70,153.81,991.70,2.65,0.60,-0.32,-32.25,64.05,46.05,34.55,9.939,
02/07/2025,12:16:08.92,6.84,144.53,994.63,-0.54,3.15,-0.28,-32.25,66.45,46.35,34.50,9.939,
02/07/2025,12:16:09.02,0.98,145.02,984.86,-1.51,2.97,-5.13,-28.95,64.65,46.95,34.40,9.939,
02/07/2025,12:16:09.12,-0.98,160.16,986.33,-0.82,1.97,-0.53,-31.20,64.35,46.95,34.64,9.939,
02/07/2025,12:16:09.22,1.46,154.79,991.21,-0.73,-0.21,-3.11,-28.95,63.90,46.95,34.50,9.939,
02/07/2025,12:16:09.32,4.39,152.83,984.86,0.79,1.67,-0.43,-31.20,64.65,46.20,34.64,9.939,
02/07/2025,12:16:09.42,5.86,149.90,990.72,0.61,3.66,-0.53,-33.0,63.75,47.85,34.31,9.938,
02/07/2025,12:16:09.52,3.42,155.76,985.84,0.30,2.47,1.15,-31.50,66.0,46.80,34.64,9.938,
02/07/2025,12:16:09.62,-4.88,156.25,982.91,-0.71,2.86,1.91,-31.05,63.30,46.80,34.40,9.938,
02/07/2025,12:16:09.73,0.49,160.16,983.89,-0.88,-0.30,-0.83,-30.15,65.85,47.25,34.31,9.938,
02/07/2025,12:16:09.83,6.84,149.41,987.30,-0.75,3.44,0.47,-31.05,64.50,46.80,34.64,9.938,
02/07/2025,12:16:09.93,12.70,150.39,975.10,-0.10,0.56,-2.16,-31.65,63.60,46.50,34.64,9.938,
02/07/2025,12:16:10.03,3.91,156.25,990.23,-0.98,3.93,-1.85,-31.95,64.65,47.25,34.50,9.938,
02/07/2025,12:16:10.13,3.42,149.41,987.30,-0.14,3.18,-3.07,-31.80,62.55,46.35,34.64,9.939,
02/07/2025,12:16:10.23,3.91,141.11,1000.49,0.17,-0.63,0.44,-31.95,64.65,46.50,34.40,9.939,
02/07/2025,12:16:10.33,0.0,160.64,985.35,1.34,1.50,-0.06,-31.50,64.05,46.35,34.21,9.939,
02/07/2025,12:16:10.43,9.28,151.37,984.86,1.49,-0.47,-0.81,-31.20,65.40,47.25,34.31,9.939,
02/07/2025,12:16:10.53,3.91,163.09,984.38,0.44,0.75,1.16,-30.30,64.50,45.60,34.31,9.939,
02/07/2025,12:16:10.63,6.84,148.93,991.21,-0.90,1.28,1.27,-32.25,63.75,46.35,34.64,9.939,
02/07/2025,12:16:10.73,8.30,146.97,973.63,-1.06,0.29,-2.05,-30.90,64.65,46.50,34.40,9.937,
02/07/2025,12:16:10.83,2.44,157.71,993.16,-0.13,3.44,-0.35,-31.65,64.65,48.30,34.69,9.938,
02/07/2025,12:16:10.93,-4.39,154.30,987.30,-1.71,2.75,1.41,-30.90,65.85,46.95,34.50,9.938,
02/07/2025,12:16:11.04,2.44,156.74,995.12,1.09,2.43,0.53,-31.95,65.10,46.95,34.50,9.938,
02/07/2025,12:16:11.14,8.79,143.07,989.75,-0.53,1.24,1.50,-32.40,64.35,46.95,34.55,9.938,
02/07/2025,12:16:11.24,5.86,147.95,983.89,0.93,0.68,-0.69,-32.40,63.90,45.45,34.40,9.938,
02/07/2025,12:16:11.34,1.95,163.09,990.72,0.99,0.10,1.14,-30.75,64.50,47.85,34.64,9.938,
02/07/2025,12:16:11.44,8.30,150.39,992.19,-0.50,2.82,-2.24,-31.05,64.05,46.35,34.40,9.938,
02/07/2025,12:16:11.54,-7.81,147.46,988.28,-1.02,1.06,-0.56,-32.55,63.30,46.35,34.50,9.938,
02/07/2025,12:16:11.64,1.95,144.04,980.47,-1.41,0.12,-3.60,-31.65,64.65,48.0,34.50,9.938,
02/07/2025,12:16:11.74,-9.77,145.02,987.30,-0.92,0.90,-0.53,-31.80,63.30,45.60,34.40,9.939,
02/07/2025,12:16:11.84,12.21,153.32,992.68,0.10,2.43,2.18,-31.95,66.30,46.20,34.31,9.939,
02/07/2025,12:16:11.94,12.70,150.88,989.75,-1.92,0.27,-0.13,-30.0,63.75,46.80,34.50,9.939,
02/07/2025,12:16:12.04,0.98,153.81,988.28,-2.17,2.10,-2.24,-31.65,64.65,47.25,34.21,9.937,
02/07/2025,12:16:12.14,10.25,154.79,996.09,-0.47,1.71,-1.25,-31.50,64.95,47.40,34.21,9.937,
02/07/2025,12:16:12.24,7.32,149.41,992.19,-2.66,1.34,0.50,-30.90,65.40,48.75,34.31,9.937,
02/07/2025,12:16:12.35,5.86,153.32,990.72,-1.25,1.27,2.89,-31.65,63.90,46.20,34.31,9.937,
02/07/2025,12:16:12.45,4.39,160.16,992.19,-0.13,1.34,-1.07,-31.95,64.35,46.95,34.40,9.938,
02/07/2025,12:16:12.55,4.88,161.62,992.19,-0.59,1.25,-0.46,-31.95,64.65,47.70,34.64,9.938,
02/07/2025,12:16:12.65,12.70,145.51,987.30,-0.01,1.31,-0.18,-32.70,63.15,47.70,34.40,9.938,
02/07/2025,12:16:12.75,4.88,154.30,988.28,-1.34,2.44,-0.42,-32.40,65.10,46.20,34.55,9.938,
02/07/2025,12:16:12.85,-3.42,155.76,997.07,-0.85,1.40,-1.67,-31.20,64.65,47.25,34.50,9.938,
02/07/2025,12:16:12.95,-8.79,157.71,984.38,-0.49,2.44,-0.95,-31.65,63.60,47.70,34.40,9.938,
02/07/2025,12:16:13.05,5.37,146.48,982.42,-0.11,1.17,-0.53,-31.50,64.95,47.10,34.36,9.938,
02/07/2025,12:16:13.15,-6.84,154.79,988.28,1.56,-0.19,-2.49,-30.90,64.65,47.25,34.40,9.938,
02/07/2025,12:16:13.25,2.93,149.90,992.68,-1.66,0.61,-4.76,-31.80,65.25,47.40,34.40,9.937,
02/07/2025,12:16:13.35,2.93,149.90,983.40,0.44,0.88,2.29,-31.05,64.95,46.35,34.40,9.937,
02/07/2025,12:16:13.45,5.37,152.83,997.56,0.02,1.92,-0.37,-31.65,64.35,47.25,34.50,9.937,
02/07/2025,12:16:13.55,-4.39,156.25,994.14,-0.57,1.21,-1.79,-32.70,64.35,47.70,34.40,9.937,
02/07/2025,12:16:13.66,2.93,144.04,995.12,-0.15,1.14,1.20,-31.05,64.05,47.40,34.50,9.937,
02/07/2025,12:16:13.76,10.25,156.25,990.23,-1.63,2.11,-3.73,-31.50,64.95,46.80,34.36,9.937,
02/07/2025,12:16:13.86,2.93,150.88,982.91,0.11,1.54,-0.69,-31.65,65.10,46.50,34.50,9.937,
02/07/2025,12:16:13.96,-2.93,148.93,983.89,1.02,0.24,-0.18,-33.30,65.25,45.60,34.36,9.937,
02/07/2025,12:16:14.06,0.98,150.39,985.84,0.58,0.78,0.53,-32.25,64.05,45.60,34.36,9.938,
02/07/2025,12:16:14.16,-4.39,150.39,987.79,-1.26,-0.26,-2.70,-32.25,63.30,45.30,34.31,9.938,
02/07/2025,12:16:14.26,2.93,148.44,989.75,-2.71,1.83,-1.77,-32.25,63.75,47.40,34.64,9.938,
02/07/2025,12:16:14.36,-1.95,147.95,994.14,-0.05,3.27,-0.98,-31.50,63.30,46.80,34.55,9.938,
02/07/2025,12:16:14.46,15.14,163.09,987.30,-1.94,2.66,-0.62,-31.95,64.35,47.25,34.40,9.938,
02/07/2025,12:16:14.56,5.86,144.04,989.26,-0.22,1.63,-2.63,-32.70,64.35,46.95,34.55,9.936,
02/07/2025,12:16:14.66,9.77,147.46,985.35,-0.89,1.46,-0.36,-32.40,64.65,47.25,34.36,9.937,
02/07/2025,12:16:14.76,8.30,155.76,991.70,-0.53,2.18,-0.04,-31.05,65.25,47.10,34.40,9.937,
02/07/2025,12:16:14.86,2.44,143.07,984.86,-0.56,0.75,-0.14,-32.25,64.50,47.85,34.40,9.937,
02/07/2025,12:16:14.97,6.35,150.88,986.82,0.88,2.50,-1.02,-33.0,63.75,47.10,34.36,9.937,
02/07/2025,12:16:15.07,-0.98,161.13,987.30,-1.72,2.36,-2.02,-30.0,64.95,46.80,34.64,9.937,
02/07/2025,12:16:15.17,1.95,150.88,987.79,-0.74,0.83,-1.73,-31.95,65.40,46.50,34.50,9.937,
02/07/2025,12:16:15.27,0.0,156.74,994.14,-1.15,1.66,-0.67,-31.80,64.05,46.35,34.40,9.937,
02/07/2025,12:16:15.37,9.77,148.44,994.63,0.73,2.43,-1.08,-32.40,62.70,45.75,34.40,9.937,
02/07/2025,12:16:15.47,3.91,143.07,987.79,0.43,1.74,0.63,-30.45,65.10,47.70,34.36,9.937,
02/07/2025,12:16:15.57,16.11,158.20,991.70,-1.17,2.10,1.56,-31.50,64.05,46.35,34.12,9.937,
02/07/2025,12:16:15.67,-6.84,143.55,987.79,-0.56,1.0,-1.02,-31.95,65.10,46.95,34.21,9.938,
02/07/2025,12:16:15.77,13.18,142.09,990.72,-0.61,2.37,-1.82,-31.65,64.65,47.70,34.36,9.938,
02/07/2025,12:16:15.87,-1.95,151.86,996.58,-0.53,1.12,-0.31,-31.65,63.60,47.70,34.02,9.936,
02/07/2025,12:16:15.97,5.86,163.09,987.79,0.50,-1.14,1.62,-32.40,64.35,46.50,34.40,9.936,
02/07/2025,12:16:16.07,-2.93,146.48,997.07,-0.15,0.80,0.86,-32.70,64.65,46.95,34.40,9.936,
02/07/2025,12:16:16.17,16.60,152.83,991.70,0.56,1.51,0.63,-30.75,64.50,46.05,34.40,9.936,
02/07/2025,12:16:16.28,7.81,155.27,994.63,-3.16,2.85,0.61,-33.15,66.30,48.75,34.55,9.937,
02/07/2025,12:16:16.38,15.14,156.74,985.84,-1.11,3.24,-2.71,-31.65,63.90,46.95,34.40,9.937,
02/07/2025,12:16:16.48,6.35,153.81,998.54,-1.31,1.52,-1.31,-32.25,63.75,48.15,34.64,9.937,
02/07/2025,12:16:16.58,-4.39,153.81,987.79,-0.40,1.92,-0.73,-31.65,64.35,46.20,34.31,9.937,
02/07/2025,12:16:16.68,2.44,157.23,984.38,-1.44,0.72,-0.56,-30.75,63.30,47.10,34.40,9.937,
02/07/2025,12:16:16.78,4.39,138.18,994.63,-0.23,0.40,-2.69,-32.25,66.45,45.60,34.40,9.937,
02/07/2025,12:16:16.88,6.35,151.37,978.52,0.55,1.03,0.93,-31.80,65.70,47.40,34.64,9.937,
02/07/2025,12:16:16.98,0.0,148.93,976.07,-2.34,3.17,0.05,-32.55,63.75,47.85,34.40,9.937,
02/07/2025,12:16:17.08,14.16,158.69,993.16,-1.38,2.10,-0.51,-32.25,63.30,46.80,34.36,9.937,
02/07/2025,12:16:17.18,10.74,157.71,997.07,-0.37,1.53,-0.11,-32.40,63.60,47.25,34.40,9.937,
02/07/2025,12:16:17.28,9.28,146.48,975.10,0.17,0.98,2.26,-31.95,63.90,46.20,34.16,9.936,
02/07/2025,12:16:17.38,1.46,149.90,984.38,0.51,-0.35,-0.21,-31.50,64.05,46.80,34.21,9.936,
02/07/2025,12:16:17.48,-1.95,156.25,979.49,1.31,-0.42,-2.54,-31.65,63.60,47.70,34.16,9.936,
02/07/2025,12:16:17.59,0.98,142.09,988.77,0.80,3.64,-2.07,-31.05,65.70,46.05,34.21,9.936,
02/07/2025,12:16:17.69,7.81,150.88,969.24,-0.02,3.17,-2.11,-32.70,64.65,47.25,34.50,9.936,
02/07/2025,12:16:17.79,-4.88,154.79,989.26,0.11,3.44,-1.66,-33.15,63.60,46.50,34.40,9.937,
02/07/2025,12:16:17.89,14.16,151.86,991.70,-1.66,0.52,-0.36,-32.25,63.75,47.10,34.40,9.937,
02/07/2025,12:16:17.99,4.88,146.48,992.19,-0.12,1.18,-0.86,-31.95,65.10,48.30,34.31,9.937,
02/07/2025,12:16:18.09,21.97,149.41,990.72,1.39,1.60,-1.53,-32.25,64.50,47.85,34.36,9.937,
02/07/2025,12:16:18.19,8.30,153.32,998.05,-0.38,2.74,-0.73,-31.05,64.50,47.10,34.31,9.937,
02/07/2025,12:16:18.29,-1.95,144.53,975.10,-1.17,1.84,0.29,-30.90,64.65,49.50,34.40,9.937,
02/07/2025,12:16:18.39,2.93,145.02,994.63,-0.87,3.84,-0.72,-32.55,64.95,47.40,34.36,9.937,
02/07/2025,12:16:18.49,8.30,163.57,981.93,0.56,1.98,0.63,-31.80,64.95,47.40,34.21,9.937,
02/07/2025,12:16:18.59,12.70,153.81,980.96,-0.58,1.79,-2.16,-31.20,63.60,48.30,34.31,9.936,
02/07/2025,12:16:18.69,0.49,143.55,990.72,2.15,0.86,-0.39,-32.55,64.05,47.10,34.40,9.936,
02/07/2025,12:16:18.79,13.67,149.90,983.40,0.47,1.23,0.26,-30.45,64.35,47.70,34.31,9.936,
02/07/2025,12:16:18.90,6.35,148.93,994.63,0.27,0.77,1.52,-32.25,63.75,47.40,34.31,9.936,
02/07/2025,12:16:19.00,3.91,147.95,998.54,-0.86,2.28,-0.40,-31.50,63.30,45.60,34.12,9.936,
02/07/2025,12:16:19.10,0.0,150.39,998.54,-0.71,2.78,-1.46,-31.50,64.05,47.40,34.12,9.936,
02/07/2025,12:16:19.20,4.88,150.88,989.75,0.62,4.22,0.58,-31.95,65.85,46.20,34.31,9.936,
02/07/2025,12:16:19.30,3.42,146.48,990.72,-0.76,1.50,1.24,-30.75,65.70,48.15,34.21,9.936,
02/07/2025,12:16:19.40,3.91,159.18,988.28,-0.19,-1.18,0.56,-33.90,63.60,46.50,34.31,9.937,
02/07/2025,12:16:19.50,-4.88,150.39,983.89,-1.62,1.93,-1.37,-32.40,63.90,46.50,34.55,9.937,
02/07/2025,12:16:19.60,8.79,158.69,996.58,-0.25,2.0,-0.21,-31.50,65.70,46.35,34.21,9.937,
02/07/2025,12:16:19.70,-4.39,153.32,984.38,0.89,1.50,-2.24,-30.75,65.25,47.40,34.31,9.937,
02/07/2025,12:16:19.80,1.95,161.13,992.19,2.18,2.85,0.20,-31.65,63.60,47.70,34.31,9.937,
02/07/2025,12:16:19.90,-3.91,152.34,996.09,-0.12,0.18,-1.56,-32.25,64.05,48.15,34.36,9.936,
02/07/2025,12:16:20.00,-0.98,151.37,990.72,-0.84,0.08,-3.73,-30.75,63.30,47.10,34.21,9.936,
02/07/2025,12:16:20.10,21.48,159.18,990.23,-3.08,5.35,-0.40,-31.65,64.65,47.70,34.50,9.936,
02/07/2025,12:16:20.21,-4.39,140.63,993.16,-0.96,3.51,-1.02,-31.20,65.85,46.95,34.21,9.936,
02/07/2025,12:16:20.31,4.39,147.95,991.21,0.74,2.23,-0.65,-31.95,64.35,46.95,34.40,9.936,
02/07/2025,12:16:20.41,4.39,153.32,984.38,-0.03,2.40,-1.50,-31.50,64.95,46.80,34.02,9.936,
02/07/2025,12:16:20.51,9.28,147.46,993.16,0.61,1.06,0.82,-32.25,65.25,46.80,34.36,9.936,
02/07/2025,12:16:20.61,0.49,157.23,990.23,1.21,2.20,-0.60,-31.65,65.10,47.70,34.02,9.936,
02/07/2025,12:16:20.71,8.30,146.00,987.79,0.84,-0.89,-1.34,-31.50,64.05,47.10,34.36,9.936,
02/07/2025,12:16:20.81,7.81,153.81,993.65,-0.03,0.54,0.02,-30.90,65.10,48.75,34.36,9.936,
02/07/2025,12:16:20.91,15.63,152.34,983.89,-0.69,3.34,-0.56,-31.95,63.60,46.20,34.55,9.936,
02/07/2025,12:16:21.01,-5.86,148.44,989.26,-1.0,-0.63,-1.64,-31.05,64.05,46.35,34.40,9.937,
02/07/2025,12:16:21.11,3.42,142.58,995.12,-0.13,-1.41,0.21,-30.75,63.30,47.40,34.50,9.937,
02/07/2025,12:16:21.21,1.46,157.23,984.86,0.82,2.58,-0.61,-31.20,63.90,48.0,34.12,9.935,
02/07/2025,12:16:21.31,1.95,147.95,994.14,1.77,0.10,0.50,-32.40,64.35,46.95,34.40,9.935,
02/07/2025,12:16:21.41,7.32,152.83,993.16,-1.24,0.81,0.25,-32.25,64.95,48.60,34.21,9.935,
02/07/2025,12:16:21.52,-4.88,157.23,989.26,-1.86,1.66,-0.39,-32.25,64.05,47.10,34.36,9.936,
02/07/2025,12:16:21.62,1.46,161.62,998.54,-1.15,3.85,-1.21,-30.90,65.10,46.50,34.36,9.936,
02/07/2025,12:16:21.72,21.48,147.46,980.96,-1.25,0.90,-0.71,-31.50,64.95,46.05,34.36,9.936,
02/07/2025,12:16:21.82,21.48,152.83,994.63,-1.63,3.21,1.19,-31.05,63.75,47.10,34.21,9.936,
02/07/2025,12:16:21.92,8.79,148.44,989.75,-0.44,1.48,2.06,-33.0,65.25,45.60,34.31,9.936,
02/07/2025,12:16:22.02,3.42,146.00,991.21,-0.25,2.25,-1.37,-31.80,63.75,46.05,34.12,9.936,
02/07/2025,12:16:22.12,15.14,155.76,989.75,-0.81,2.89,0.78,-32.70,64.35,46.20,34.12,9.936,
02/07/2025,12:16:22.22,5.37,152.83,991.21,-1.05,2.05,0.50,-33.45,64.65,46.95,34.16,9.936,
02/07/2025,12:16:22.32,-2.93,154.79,986.82,0.46,-1.06,-0.34,-31.95,64.35,47.25,34.21,9.936,
02/07/2025,12:16:22.42,21.00,140.14,979.98,1.18,0.74,2.0,-30.75,65.70,46.05,34.12,9.936,
02/07/2025,12:16:22.52,-1.46,144.04,989.26,-1.04,1.34,-0.83,-30.90,64.65,46.20,34.31,9.935,
02/07/2025,12:16:22.62,-1.95,145.51,999.51,-0.02,2.62,-0.10,-31.95,65.85,45.75,34.31,9.935,
02/07/2025,12:16:22.72,4.39,153.32,989.26,-2.11,3.35,-1.56,-30.30,65.70,46.35,34.21,9.935,
02/07/2025,12:16:22.83,7.81,143.07,983.40,0.79,-0.98,1.46,-31.65,63.15,47.70,34.40,9.935,
02/07/2025,12:16:22.93,1.46,144.53,988.77,0.60,2.79,0.02,-31.95,63.15,45.75,34.31,9.935,
02/07/2025,12:16:23.03,2.44,141.60,974.61,0.53,2.08,0.97,-31.80,64.95,46.80,34.21,9.936,
02/07/2025,12:16:23.13,0.0,146.97,988.28,0.52,2.52,0.71,-31.95,66.60,46.50,34.21,9.936,
02/07/2025,12:16:23.23,10.25,161.62,981.93,-0.47,3.68,-2.84,-31.80,64.05,47.10,34.40,9.936,
02/07/2025,12:16:23.33,5.37,149.90,985.35,-1.08,2.36,-1.82,-29.70,63.90,46.50,34.40,9.936,
02/07/2025,12:16:23.43,5.86,149.41,987.30,-1.70,0.87,-1.31,-30.90,65.40,47.70,34.21,9.936,
02/07/2025,12:16:23.53,-0.49,138.18,986.33,1.55,-0.35,2.09,-31.50,64.95,46.80,33.97,9.936,
02/07/2025,12:16:23.63,8.30,148.44,986.33,1.04,1.06,-1.26,-33.0,65.25,46.35,34.02,9.936,
02/07/2025,12:16:23.73,17.58,156.74,979.49,0.15,1.98,0.64,-31.80,64.95,46.35,33.97,9.936,
02/07/2025,12:16:23.83,2.44,146.00,990.23,-3.33,2.03,-1.04,-31.50,64.95,45.60,34.12,9.935,
02/07/2025,12:16:23.93,9.28,156.74,992.19,-0.52,0.46,-1.11,-30.45,65.10,46.20,34.31,9.935,
02/07/2025,12:16:24.03,11.23,150.88,994.14,0.14,1.23,2.29,-31.50,64.95,47.10,34.40,9.935,
02/07/2025,12:16:24.14,-4.39,150.39,979.49,-0.40,1.95,-1.51,-32.55,63.30,46.80,34.21,9.935,
02/07/2025,12:16:24.24,3.42,147.46,997.56,-0.04,1.07,-0.55,-31.05,64.95,47.40,34.36,9.935,
02/07/2025,12:16:24.34,6.35,155.76,985.35,0.0,0.17,-2.18,-31.20,64.35,45.75,34.21,9.935,
02/07/2025,12:16:24.44,3.42,144.04,977.05,-1.59,3.46,0.24,-31.50,64.50,46.80,34.21,9.935,
02/07/2025,12:16:24.54,2.93,153.32,988.77,-0.96,2.40,-2.69,-31.50,64.50,47.10,34.21,9.935,
02/07/2025,12:16:24.64,0.98,156.74,989.75,-1.34,3.09,-0.75,-32.25,66.0,47.85,34.31,9.936,
02/07/2025,12:16:24.74,4.88,150.88,1002.93,-0.35,3.20,-2.29,-31.50,64.05,46.80,34.12,9.936,
02/07/2025,12:16:24.84,19.04,148.93,987.30,0.65,0.03,-1.01,-30.30,63.0,46.05,34.21,9.936,
02/07/2025,12:16:24.94,7.32,154.30,996.09,1.02,2.14,-0.74,-31.65,63.60,45.75,34.31,9.936,
02/07/2025,12:16:25.04,14.16,147.95,989.26,0.50,1.08,-3.82,-32.55,64.05,46.80,34.21,9.936,
02/07/2025,12:16:25.14,4.39,146.00,989.26,-2.89,4.83,-1.01,-31.05,65.25,47.85,33.97,9.935,
02/07/2025,12:16:25.24,13.18,158.20,992.68,-2.02,1.69,-0.19,-31.50,63.75,47.10,34.02,9.935,
02/07/2025,12:16:25.34,-2.44,150.39,995.12,-0.82,-0.79,0.23,-31.65,63.60,46.20,34.21,9.935,
02/07/2025,12:16:25.44,7.81,156.74,994.14,-0.98,2.31,1.68,-31.65,63.60,46.95,34.36,9.935,
02/07/2025,12:16:25.55,-0.49,151.37,985.35,-1.11,-2.36,1.30,-32.40,65.85,46.95,34.21,9.935,
02/07/2025,12:16:25.65,5.86,161.62,991.70,-3.16,0.89,-1.11,-31.95,65.40,47.25,34.21,9.935,
02/07/2025,12:16:25.75,-2.44,152.34,984.86,-0.73,1.22,-2.01,-31.65,64.65,47.70,34.21,9.935,
02/07/2025,12:16:25.85,2.44,139.16,988.28,0.19,0.68,-1.08,-30.90,64.35,47.25,34.21,9.935,
02/07/2025,12:16:25.95,0.0,148.44,988.28,-1.56,0.57,0.40,-33.0,64.05,47.40,34.21,9.935,
02/07/2025,12:16:26.05,4.39,162.11,978.52,0.89,1.31,0.64,-31.95,64.65,46.20,34.21,9.935,
02/07/2025,12:16:26.15,-3.91,157.23,992.68,-1.03,1.08,-3.34,-31.80,64.05,46.80,34.21,9.936,
02/07/2025,12:16:26.25,-8.79,148.93,988.77,-1.36,2.40,0.15,-30.90,63.15,44.40,34.21,9.936,
02/07/2025,12:16:26.35,1.95,159.18,991.21,-2.53,1.24,-2.02,-30.90,63.60,47.70,34.31,9.936,
02/07/2025,12:16:26.45,16.11,156.74,986.33,-0.91,2.20,0.62,-31.95,64.65,46.20,34.12,9.934,
02/07/2025,12:16:26.55,7.81,164.55,985.84,0.43,1.18,-0.69,-31.50,64.05,47.40,33.97,9.935,
02/07/2025,12:16:26.65,8.30,156.25,980.96,-0.37,2.44,-1.38,-31.95,64.35,47.25,34.02,9.935,
02/07/2025,12:16:26.76,-0.98,153.32,986.33,-0.59,2.52,-0.89,-31.95,64.35,47.70,34.31,9.935,
02/07/2025,12:16:26.86,-1.95,151.37,996.09,-2.05,0.63,-2.15,-31.80,64.50,46.35,34.12,9.935,
02/07/2025,12:16:26.96,-7.81,167.97,993.65,-0.51,2.08,-0.53,-33.0,63.75,46.80,34.31,9.935,
02/07/2025,12:16:27.06,6.35,153.81,991.21,0.44,2.37,-0.09,-31.95,64.65,46.95,34.36,9.935,
02/07/2025,12:16:27.16,2.93,152.83,995.61,-1.47,0.43,-3.03,-32.55,63.75,47.85,34.36,9.935,
02/07/2025,12:16:27.26,7.81,147.95,996.58,-0.44,0.15,-0.49,-30.75,64.05,46.35,34.16,9.935,
02/07/2025,12:16:27.36,1.95,155.27,995.61,-0.56,0.83,-3.53,-31.50,64.05,46.05,34.36,9.935,
02/07/2025,12:16:27.46,10.25,145.02,985.84,0.31,2.05,-0.17,-32.70,64.35,46.95,34.31,9.935,
02/07/2025,12:16:27.56,-0.49,158.20,988.77,-1.13,0.31,-0.95,-30.30,63.75,47.10,34.40,9.935,
02/07/2025,12:16:27.66,5.37,159.67,989.26,-0.32,0.80,-0.56,-31.80,65.25,47.10,33.88,9.936,
02/07/2025,12:16:27.76,5.37,147.95,998.05,-1.55,1.75,-3.37,-31.50,65.25,46.35,34.02,9.936,
02/07/2025,12:16:27.86,8.79,154.79,983.40,-0.08,0.56,-2.50,-32.40,63.60,45.75,34.12,9.934,
02/07/2025,12:16:27.96,9.77,146.48,984.38,0.02,0.84,-1.46,-32.70,63.90,47.25,34.21,9.934,
02/07/2025,12:16:28.06,1.46,166.99,993.65,-0.63,-0.76,-2.34,-30.75,64.95,46.80,34.12,9.934,
02/07/2025,12:16:28.17,4.39,155.76,986.33,-0.92,-1.54,-1.40,-31.65,64.35,46.50,34.16,9.935,
02/07/2025,12:16:28.27,-10.74,156.25,988.77,-0.85,2.79,-1.40,-31.80,63.0,46.80,34.16,9.935,
02/07/2025,12:16:28.37,-0.98,145.02,987.79,-1.58,4.07,0.70,-31.50,64.95,46.05,34.21,9.935,
02/07/2025,12:16:28.47,-4.39,141.60,982.42,1.40,1.05,1.0,-31.95,63.90,46.20,34.31,9.935,
02/07/2025,12:16:28.57,-5.37,151.86,989.26,0.07,-0.11,-3.15,-31.20,63.90,46.50,34.21,9.935,
02/07/2025,12:16:28.67,-8.30,145.02,992.19,-0.31,0.24,-1.98,-31.95,66.30,47.70,34.12,9.935,
02/07/2025,12:16:28.77,0.98,153.81,986.33,-0.31,2.29,-0.83,-31.95,65.85,46.95,34.31,9.935,
02/07/2025,12:16:28.87,12.70,145.02,1002.93,-1.34,1.36,0.93,-31.20,65.85,45.75,34.31,9.935,
02/07/2025,12:16:28.97,-2.44,140.14,992.19,-0.96,0.79,-2.39,-30.30,64.95,48.15,34.12,9.935,
02/07/2025,12:16:29.07,19.53,159.18,989.75,-1.18,1.53,1.11,-32.25,66.0,47.10,34.02,9.935,
02/07/2025,12:16:29.17,2.44,147.46,986.33,-2.97,1.44,-1.05,-31.80,64.50,45.60,34.21,9.934,
02/07/2025,12:16:29.27,-3.91,150.39,987.30,-2.32,1.66,-1.28,-32.55,63.30,47.85,34.12,9.934,
02/07/2025,12:16:29.37,-5.37,143.07,985.84,-1.94,1.47,0.89,-31.50,64.95,46.35,34.21,9.934,
02/07/2025,12:16:29.48,0.98,159.18,986.33,-0.81,2.52,-3.02,-32.55,64.95,47.40,34.31,9.934,
02/07/2025,12:16:29.58,0.49,156.25,992.68,-1.52,1.12,0.86,-31.05,64.50,46.05,34.12,9.934,
02/07/2025,12:16:29.68,7.32,157.23,992.68,-2.34,2.30,-1.20,-30.45,65.10,45.45,34.21,9.935,
02/07/2025,12:16:29.78,6.84,151.86,991.21,-1.08,1.08,0.27,-31.50,63.75,46.80,33.97,9.935,
02/07/2025,12:16:29.88,0.98,135.74,986.33,-0.76,0.47,-1.22,-31.80,64.05,47.10,34.12,9.935,
02/07/2025,12:16:29.98,8.30,146.00,987.79,-1.56,1.74,1.08,-30.75,64.50,47.40,34.02,9.935,
02/07/2025,12:16:30.08,5.86,142.09,983.40,1.85,-0.59,-1.20,-31.65,65.10,45.75,34.02,9.935,
02/07/2025,12:16:30.18,-3.91,145.51,987.79,1.66,0.52,-0.14,-32.40,63.60,46.50,33.97,9.935,
02/07/2025,12:16:30.28,-5.86,140.14,982.91,-0.53,1.40,0.82,-31.80,64.95,46.80,34.12,9.935,
02/07/2025,12:16:30.38,9.28,145.02,979.49,-0.08,0.49,-2.25,-31.65,64.65,46.20,34.02,9.935,
02/07/2025,12:16:30.48,1.95,149.90,1000.49,-0.06,3.10,0.37,-32.40,65.10,48.75,34.12,9.935,
02/07/2025,12:16:30.58,5.86,161.13,983.40,-1.95,1.0,-0.54,-31.50,63.75,46.80,34.12,9.934,
02/07/2025,12:16:30.68,11.72,149.90,997.56,1.19,2.21,-4.14,-31.50,65.25,47.10,34.02,9.934,
02/07/2025,12:16:30.79,1.95,162.11,976.07,-1.21,2.50,-2.41,-33.0,63.75,47.10,34.12,9.934,
02/07/2025,12:16:30.89,-2.44,140.63,989.75,-0.62,-1.03,-2.60,-32.40,64.35,48.0,34.21,9.934,
02/07/2025,12:16:30.99,4.88,152.34,992.19,-0.21,3.24,-1.63,-32.40,64.65,46.20,34.02,9.934,
02/07/2025,12:16:31.09,-6.84,160.16,995.12,-1.87,-0.18,0.11,-31.05,64.05,46.05,34.02,9.934,
02/07/2025,12:16:31.19,-11.23,160.64,984.38,-1.62,1.35,-0.26,-31.05,65.25,46.80,34.16,9.935,
02/07/2025,12:16:31.29,-3.91,160.64,986.82,-1.43,-0.37,-3.16,-32.25,65.25,47.40,34.12,9.935,
02/07/2025,12:16:31.39,15.14,140.63,982.42,0.13,-2.17,0.92,-33.0,65.25,46.80,33.88,9.935,
02/07/2025,12:16:31.49,5.37,158.69,991.21,2.23,0.74,0.12,-31.95,65.40,46.20,34.31,9.935,
02/07/2025,12:16:31.59,2.93,144.53,986.82,-1.31,1.81,-3.57,-31.50,63.75,46.80,34.31,9.935,
02/07/2025,12:16:31.69,12.70,152.83,992.68,-0.89,3.61,1.25,-31.65,63.15,46.50,34.16,9.935,
02/07/2025,12:16:31.79,5.86,149.41,989.75,-1.66,1.78,0.16,-30.45,64.35,46.50,34.21,9.934,
02/07/2025,12:16:31.89,2.93,154.79,987.79,-0.34,-2.56,-2.80,-32.25,64.05,47.85,34.16,9.934,
02/07/2025,12:16:31.99,9.28,163.57,986.82,-1.18,-0.16,-2.09,-31.80,63.30,46.80,34.21,9.934,
02/07/2025,12:16:32.09,7.81,142.58,997.07,-0.69,1.31,-2.44,-31.95,64.35,45.45,34.31,9.934,
02/07/2025,12:16:32.20,6.84,138.67,989.26,-0.02,0.16,-1.08,-32.55,64.50,47.10,34.02,9.934,
02/07/2025,12:16:32.30,6.35,157.71,988.28,0.17,1.04,-2.67,-30.15,63.90,45.75,34.21,9.934,
02/07/2025,12:16:32.40,12.21,145.51,996.09,-0.16,2.63,-0.96,-31.05,64.50,46.05,33.83,9.934,
02/07/2025,12:16:32.50,-1.46,142.09,983.89,-0.47,0.08,-2.36,-31.95,65.10,46.50,33.78,9.934,
02/07/2025,12:16:32.60,-3.42,158.20,996.58,-1.24,-1.34,-1.58,-31.50,63.75,47.10,34.02,9.934,
02/07/2025,12:16:32.70,0.0,160.64,983.89,-1.47,2.18,1.66,-31.05,66.0,47.40,34.12,9.935,
02/07/2025,12:16:32.80,0.49,148.44,990.23,-0.78,0.25,-0.11,-32.40,65.10,46.20,34.36,9.935,
02/07/2025,12:16:32.90,3.42,156.25,979.49,-1.13,4.19,0.35,-31.20,65.40,45.45,34.21,9.935,
02/07/2025,12:16:33.00,0.49,149.90,979.49,-1.08,0.50,-0.93,-31.50,64.95,46.80,34.31,9.935,
02/07/2025,12:16:33.10,1.46,151.37,983.89,0.44,1.82,-2.13,-33.0,64.05,47.10,34.02,9.935,
02/07/2025,12:16:33.20,2.93,151.37,983.40,0.98,0.57,0.49,-30.90,65.10,48.0,33.97,9.934,
02/07/2025,12:16:33.30,-0.98,135.74,983.40,-3.82,0.41,-0.73,-31.95,63.60,47.70,34.21,9.934,
02/07/2025,12:16:33.40,12.70,152.83,986.33,-2.27,3.37,-0.17,-33.0,64.95,47.10,34.02,9.934,
02/07/2025,12:16:33.51,5.37,154.30,983.89,1.47,1.66,-0.53,-30.45,65.40,45.15,33.97,9.934,
02/07/2025,12:16:33.61,9.77,151.86,991.70,0.08,0.60,-0.43,-31.50,65.25,47.40,33.88,9.934,
02/07/2025,12:16:33.71,11.23,146.48,986.82,-1.0,0.66,-0.98,-31.05,65.25,45.60,34.02,9.934,
02/07/2025,12:16:33.81,13.18,145.02,984.86,-1.36,3.11,-0.96,-31.65,65.40,47.25,34.21,9.934,
02/07/2025,12:16:33.91,9.28,158.20,993.65,-0.86,2.62,0.61,-32.40,64.65,46.50,34.21,9.934,
02/07/2025,12:16:34.01,14.16,163.09,987.30,1.69,-0.83,-0.97,-31.65,64.35,47.25,34.31,9.934,
02/07/2025,12:16:34.11,2.93,153.81,981.93,-1.51,-0.37,-0.12,-32.25,64.05,47.10,34.02,9.934,
02/07/2025,12:16:34.21,10.74,142.58,1003.42,-0.66,3.24,-0.54,-32.40,63.90,47.25,34.16,9.935,
02/07/2025,12:16:34.31,4.39,151.86,1000.98,-1.07,1.72,-1.29,-31.80,66.0,46.05,33.97,9.935,
02/07/2025,12:16:34.41,5.37,156.25,990.72,-0.03,0.69,-0.36,-31.65,64.35,48.0,34.02,9.935,
02/07/2025,12:16:34.51,-7.32,167.48,989.26,-0.30,-0.49,-0.48,-31.80,64.50,47.85,33.97,9.934,
02/07/2025,12:16:34.61,8.30,146.48,987.30,-1.44,3.92,-0.08,-32.25,63.75,47.85,33.97,9.934,
02/07/2025,12:16:34.71,-4.88,152.34,993.16,-2.63,1.31,1.37,-31.95,63.90,46.20,33.78,9.934,
02/07/2025,12:16:34.82,-5.86,158.69,985.35,-0.22,0.65,-1.02,-31.65,64.35,47.25,33.78,9.934,
02/07/2025,12:16:34.92,19.04,145.02,984.38,0.87,1.86,-0.54,-31.65,64.65,46.95,34.02,9.934,
02/07/2025,12:16:35.02,9.77,144.04,984.86,-1.37,3.56,-1.75,-31.50,63.30,47.10,34.21,9.934,
02/07/2025,12:16:35.12,13.18,160.16,990.72,-2.04,1.33,-1.34,-31.50,65.25,47.40,33.97,9.934,
02/07/2025,12:16:35.22,-6.35,147.46,987.79,0.49,2.10,-0.36,-31.80,64.50,45.60,33.97,9.934,
02/07/2025,12:16:35.32,-5.86,146.97,982.42,-0.09,0.02,-0.12,-30.75,63.75,44.55,34.02,9.934,
02/07/2025,12:16:35.42,-4.88,150.39,995.12,1.88,0.82,0.11,-31.05,64.05,46.35,34.02,9.934,
02/07/2025,12:16:35.52,6.84,143.55,985.35,0.03,2.86,1.15,-32.70,63.90,47.25,34.12,9.934,
02/07/2025,12:16:35.62,11.23,146.97,982.42,-1.93,3.24,0.07,-33.15,65.10,45.75,34.16,9.934,
02/07/2025,12:16:35.72,-2.44,142.09,987.79,0.94,0.47,-1.40,-31.20,65.85,46.50,34.02,9.935,
02/07/2025,12:16:35.82,-4.39,161.62,994.14,-0.11,1.32,-0.34,-30.45,63.60,46.95,33.83,9.935,
02/07/2025,12:16:35.92,-2.44,154.30,983.89,-0.74,2.39,2.16,-32.70,63.60,47.25,33.97,9.933,
02/07/2025,12:16:36.02,1.46,158.20,987.30,-0.76,0.10,-1.71,-31.80,64.05,46.05,34.02,9.934,
02/07/2025,12:16:36.12,-6.35,153.32,989.75,0.48,0.67,-0.82,-31.05,63.75,47.40,33.88,9.934,
02/07/2025,12:16:36.23,0.0,152.34,991.21,-0.95,0.27,-1.66,-31.65,64.35,46.95,34.16,9.934,
02/07/2025,12:16:36.33,-0.49,152.83,979.98,-0.37,1.32,-2.24,-31.05,65.25,46.80,33.83,9.934,
02/07/2025,12:16:36.43,11.72,148.44,986.33,-2.05,3.41,-3.15,-32.55,64.05,47.40,34.02,9.934,
02/07/2025,12:16:36.53,5.86,165.53,990.72,1.01,-0.11,-0.07,-31.20,63.90,47.25,33.97,9.934,
02/07/2025,12:16:36.63,13.67,146.97,983.89,0.55,3.53,-0.28,-30.90,64.35,45.75,34.02,9.934,
02/07/2025,12:16:36.73,7.81,155.27,985.35,-1.55,3.56,-3.20,-32.55,65.25,47.40,33.83,9.934,
02/07/2025,12:16:36.83,2.93,155.76,991.70,-1.31,1.62,-2.05,-30.45,64.65,48.0,33.68,9.934,
02/07/2025,12:16:36.93,4.88,146.48,991.21,0.33,0.34,1.04,-30.90,64.65,45.45,33.78,9.934,
02/07/2025,12:16:37.03,4.39,138.18,998.05,-1.43,0.23,0.78,-31.05,64.50,46.05,33.97,9.934,
02/07/2025,12:16:37.13,2.44,154.30,988.28,-0.34,1.02,1.11,-31.80,63.0,48.15,33.97,9.934,
02/07/2025,12:16:37.23,2.93,164.06,987.30,-0.98,0.82,-0.07,-31.95,64.65,46.50,34.02,9.933,
02/07/2025,12:16:37.33,4.39,161.13,999.02,-1.03,0.06,0.42,-31.95,63.90,45.75,34.12,9.933,
02/07/2025,12:16:37.43,19.04,152.34,982.91,-0.02,-0.25,0.12,-31.80,62.55,46.35,34.02,9.933,
02/07/2025,12:16:37.54,-3.91,146.00,988.28,0.69,2.21,-0.29,-30.90,64.65,46.20,34.12,9.934,
02/07/2025,12:16:37.64,2.93,149.90,987.30,-2.03,1.75,-0.31,-30.90,62.70,47.25,33.83,9.934,
02/07/2025,12:16:37.74,0.98,157.71,987.30,1.53,0.34,-0.62,-30.75,63.30,46.80,33.68,9.934,
02/07/2025,12:16:37.84,1.95,155.76,986.33,-1.23,2.16,-0.69,-32.40,63.15,45.15,33.78,9.934,
02/07/2025,12:16:37.94,4.88,148.44,982.91,-0.91,-0.52,-3.73,-31.80,64.50,46.05,33.88,9.934,
02/07/2025,12:16:38.04,-3.42,150.39,991.70,-1.82,1.78,-0.03,-31.95,64.35,47.25,34.02,9.934,
02/07/2025,12:16:38.14,3.91,148.44,983.40,-0.39,-2.15,-0.53,-31.65,63.60,46.20,33.88,9.934,
02/07/2025,12:16:38.24,-1.46,145.02,985.84,-0.54,2.79,-2.95,-30.75,64.95,45.60,34.02,9.934,
02/07/2025,12:16:38.34,5.86,149.90,993.16,-2.53,2.54,-2.31,-33.0,64.50,47.85,34.02,9.934,
02/07/2025,12:16:38.44,-7.81,149.41,984.86,-0.01,1.88,0.33,-31.05,65.25,46.05,34.02,9.934,
02/07/2025,12:16:38.54,5.86,156.25,1004.39,1.05,0.24,-1.04,-30.75,62.55,46.80,34.02,9.933,
02/07/2025,12:16:38.64,-2.93,146.97,990.72,-1.60,3.30,-0.37,-32.25,65.25,47.40,33.88,9.933,
02/07/2025,12:16:38.74,8.30,162.60,993.65,-2.02,3.55,-0.73,-30.15,63.60,46.20,33.78,9.933,
02/07/2025,12:16:38.84,2.44,153.81,994.14,-0.82,0.83,-1.47,-31.80,65.25,46.80,33.88,9.933,
02/07/2025,12:16:38.95,-6.35,144.53,989.26,0.22,3.76,1.40,-32.55,64.95,47.10,33.83,9.933,
02/07/2025,12:16:39.05,9.77,157.71,986.33,-2.18,0.60,0.18,-31.05,64.05,45.60,33.88,9.934,
02/07/2025,12:16:39.15,-2.44,147.95,989.75,0.65,2.95,-3.10,-32.55,63.30,48.15,33.97,9.934,
02/07/2025,12:16:39.25,15.14,146.97,979.00,1.76,2.62,1.66,-33.45,63.60,48.0,34.12,9.934,
02/07/2025,12:16:39.35,5.86,149.41,992.68,-0.46,-0.35,-1.05,-31.65,64.35,48.0,34.21,9.934,
02/07/2025,12:16:39.45,5.86,153.32,983.89,-0.77,3.51,-0.40,-30.0,63.30,46.05,34.12,9.934,
02/07/2025,12:16:39.55,2.93,147.46,990.72,-0.25,1.82,-0.70,-31.20,64.35,47.25,33.97,9.934,
02/07/2025,12:16:39.65,15.63,152.34,989.26,0.11,1.55,0.95,-33.45,63.15,46.20,33.88,9.934,
02/07/2025,12:16:39.75,5.37,139.16,984.38,-2.21,0.79,-2.72,-32.40,65.10,48.30,33.78,9.934,
02/07/2025,12:16:39.85,1.46,155.76,985.35,-0.88,0.74,1.50,-31.95,64.35,47.25,33.64,9.934,
02/07/2025,12:16:39.95,-0.98,145.51,997.56,-0.95,3.50,0.67,-30.90,64.65,47.25,33.83,9.933,
02/07/2025,12:16:40.05,0.49,150.88,994.63,0.32,-1.19,0.54,-31.80,65.25,46.80,34.02,9.933,
02/07/2025,12:16:40.15,7.32,162.11,985.84,1.63,-0.88,-0.34,-31.95,63.60,46.50,34.02,9.933,
02/07/2025,12:16:40.26,-0.98,150.39,992.68,1.40,-0.92,1.36,-31.80,64.50,47.85,33.97,9.933,
02/07/2025,12:16:40.36,5.37,162.11,989.26,0.67,2.53,1.15,-32.40,65.10,46.95,34.02,9.933,
02/07/2025,12:16:40.46,8.30,142.09,1000.49,-0.55,2.14,-1.63,-31.65,64.35,45.75,33.88,9.933,
02/07/2025,12:16:40.56,-0.98,150.39,985.84,2.68,0.21,2.08,-31.20,64.65,46.95,34.02,9.934,
02/07/2025,12:16:40.66,5.37,147.46,987.79,0.62,2.01,-1.51,-31.05,64.05,47.10,33.88,9.934,
02/07/2025,12:16:40.76,-6.84,149.41,988.28,-1.42,3.26,-1.12,-31.50,65.25,48.60,33.83,9.934,
02/07/2025,12:16:40.86,-1.95,153.81,999.51,-1.18,4.19,-1.27,-31.20,63.60,46.95,33.59,9.934,
02/07/2025,12:16:40.96,-7.32,156.74,984.86,0.86,1.60,0.51,-32.25,64.95,47.10,33.83,9.934,
02/07/2025,12:16:41.06,-5.37,150.88,993.65,-1.78,-0.34,0.41,-31.65,64.65,46.20,33.88,9.934,
02/07/2025,12:16:41.16,8.30,148.44,995.61,-2.55,2.33,-2.0,-31.65,64.35,45.45,34.02,9.934,
02/07/2025,12:16:41.26,-11.72,150.39,979.49,-0.62,-0.45,-2.20,-31.95,65.10,46.50,33.97,9.934,
02/07/2025,12:16:41.36,8.79,145.51,992.19,0.36,2.61,-2.18,-31.80,64.05,46.35,33.88,9.933,
02/07/2025,12:16:41.46,11.23,134.77,991.70,-0.84,2.0,-3.11,-31.65,63.60,46.20,33.88,9.933,
02/07/2025,12:16:41.57,-9.77,163.09,983.89,-1.11,0.96,2.05,-31.20,63.90,46.50,33.78,9.933,
02/07/2025,12:16:41.67,-1.46,152.83,977.54,-1.07,2.82,-0.73,-31.50,63.30,47.10,33.68,9.933,
02/07/2025,12:16:41.77,5.37,146.97,978.52,0.68,3.82,-1.79,-32.25,64.50,46.35,33.64,9.933,
02/07/2025,12:16:41.87,-0.49,152.34,989.26,-0.47,1.57,-2.15,-33.15,62.70,47.70,34.02,9.933,
02/07/2025,12:16:41.97,8.79,162.60,988.77,-0.18,-0.37,-1.50,-30.90,64.35,46.95,33.78,9.933,
02/07/2025,12:16:42.07,10.25,156.25,991.21,2.18,1.15,-0.19,-31.05,64.05,46.80,33.78,9.934,
02/07/2025,12:16:42.17,-0.49,158.69,983.40,-0.33,0.63,-0.87,-31.20,63.90,46.50,33.88,9.934,
02/07/2025,12:16:42.27,5.37,150.39,996.58,-2.90,3.03,-2.49,-32.40,63.15,43.95,33.88,9.934,
02/07/2025,12:16:42.37,7.32,150.39,993.16,-0.71,2.11,-3.10,-31.20,65.10,47.25,33.83,9.934,
02/07/2025,12:16:42.47,6.35,151.86,996.09,0.27,3.35,0.74,-30.0,65.25,46.35,34.02,9.934,
02/07/2025,12:16:42.57,14.65,145.02,986.82,-0.83,-0.56,-1.45,-31.05,64.50,44.55,34.12,9.934,
02/07/2025,12:16:42.67,5.37,149.41,991.21,-1.57,2.63,-0.15,-31.95,64.65,45.15,33.83,9.933,
02/07/2025,12:16:42.77,-1.95,150.88,999.02,-1.09,5.39,-0.96,-33.30,63.75,43.50,33.49,9.933,
02/07/2025,12:16:42.87,12.70,148.93,990.72,-0.69,1.87,1.89,-30.90,62.70,47.25,33.83,9.933,
02/07/2025,12:16:42.98,14.65,145.51,992.68,-0.93,3.34,1.14,-31.05,64.05,46.35,33.78,9.933,
02/07/2025,12:16:43.08,-3.91,152.83,989.26,-0.28,1.37,-0.33,-31.50,64.95,47.40,34.12,9.933,
02/07/2025,12:16:43.18,9.28,158.69,987.30,2.68,0.84,1.71,-32.25,64.05,46.35,33.83,9.933,
02/07/2025,12:16:43.28,-1.46,151.37,990.72,-0.19,-1.34,2.29,-33.30,66.0,47.10,33.88,9.933,
02/07/2025,12:16:43.38,3.42,138.67,1002.44,-3.22,1.95,-1.76,-31.65,64.35,48.0,34.02,9.933,
02/07/2025,12:16:43.48,0.98,159.18,977.54,-0.79,4.12,-2.76,-31.80,64.50,47.10,33.88,9.933,
02/07/2025,12:16:43.58,17.09,169.43,978.52,-1.35,2.16,-1.09,-31.05,62.55,46.80,33.68,9.934,
02/07/2025,12:16:43.68,3.91,157.23,987.79,0.73,1.42,0.22,-31.65,64.65,46.50,33.64,9.934,
02/07/2025,12:16:43.78,6.35,151.86,987.79,-1.46,2.02,-1.88,-31.95,63.60,46.50,33.88,9.934,
02/07/2025,12:16:43.88,13.18,146.97,981.45,-3.90,3.27,-0.01,-31.95,64.35,46.95,33.88,9.934,
02/07/2025,12:16:43.98,2.93,154.79,988.77,-1.06,1.82,0.79,-31.80,65.25,46.80,34.16,9.934,
02/07/2025,12:16:44.08,-12.21,143.55,977.54,1.14,1.05,2.61,-31.65,64.35,45.75,33.83,9.933,
02/07/2025,12:16:44.18,4.88,154.30,996.58,-0.60,1.85,-1.56,-31.95,65.40,46.20,33.83,9.933,
02/07/2025,12:16:44.28,8.79,147.46,980.47,0.82,1.47,-0.31,-31.80,64.50,47.10,33.88,9.933,
02/07/2025,12:16:44.39,-0.98,149.41,979.00,1.73,0.68,-2.49,-31.65,63.90,48.0,33.68,9.933,
02/07/2025,12:16:44.49,9.77,146.48,993.65,-1.20,3.76,-0.83,-30.90,64.35,46.20,33.64,9.933,
02/07/2025,12:16:44.59,1.95,146.97,988.77,-2.08,1.60,-3.56,-31.95,66.30,46.20,33.59,9.933,
02/07/2025,12:16:44.69,2.93,157.23,987.30,0.63,0.78,-2.18,-31.20,63.90,46.50,33.78,9.933,
02/07/2025,12:16:44.79,7.32,156.25,983.40,1.83,-0.17,0.33,-31.05,64.95,46.80,33.97,9.933,
02/07/2025,12:16:44.89,4.39,157.71,991.70,-0.79,2.56,-1.11,-31.05,64.50,45.30,34.02,9.933,
02/07/2025,12:16:44.99,-0.49,155.76,988.77,-1.69,-0.01,-0.02,-31.80,64.05,46.05,33.88,9.933,
02/07/2025,12:16:45.09,3.42,155.76,982.42,2.43,-0.29,-0.72,-30.75,64.05,46.05,33.59,9.934,
02/07/2025,12:16:45.19,-6.35,162.11,980.47,0.51,-1.98,-2.28,-33.0,65.25,44.55,33.78,9.934,
02/07/2025,12:16:45.29,6.84,154.79,983.89,0.41,1.97,-0.98,-31.50,65.70,46.35,33.68,9.934,
02/07/2025,12:16:45.39,-7.81,146.48,994.14,-0.87,3.91,-3.54,-33.0,64.95,47.10,34.02,9.933,
02/07/2025,12:16:45.49,18.55,154.30,983.89,-1.80,2.23,-0.46,-32.25,65.70,44.85,33.64,9.933,
02/07/2025,12:16:45.59,5.86,147.46,989.75,1.48,1.07,0.10,-31.50,63.75,46.05,33.49,9.933,
02/07/2025,12:16:45.69,-3.42,143.55,991.70,-1.11,1.27,-0.95,-31.80,64.95,47.85,33.83,9.933,
02/07/2025,12:16:45.80,2.44,155.76,989.26,-0.21,0.60,-0.48,-32.25,63.75,46.05,33.97,9.933,
02/07/2025,12:16:45.90,11.23,148.93,990.72,-0.55,1.72,-1.14,-31.50,64.95,46.35,33.78,9.933,
02/07/2025,12:16:46.00,-2.44,159.18,991.70,-3.29,2.44,-2.29,-31.95,63.60,47.70,33.88,9.933,
02/07/2025,12:16:46.10,0.0,142.58,987.79,-1.10,2.50,-1.97,-31.50,65.70,46.35,33.97,9.933,
02/07/2025,12:16:46.20,0.49,150.88,990.23,0.37,-0.47,-0.28,-32.40,63.90,46.20,33.83,9.933,
02/07/2025,12:16:46.30,2.93,150.39,984.86,0.03,0.95,1.86,-31.05,66.0,46.05,33.64,9.933,
02/07/2025,12:16:46.40,-1.46,152.83,992.19,-1.65,2.81,-0.48,-31.80,64.50,47.85,33.59,9.933,
02/07/2025,12:16:46.50,3.42,144.53,983.40,1.53,0.93,0.15,-31.20,64.65,46.95,33.83,9.933,
02/07/2025,12:16:46.60,1.46,146.97,991.70,-0.68,1.73,-2.32,-31.95,63.90,48.0,33.78,9.934,
02/07/2025,12:16:46.70,5.37,146.00,983.89,-0.77,2.34,-0.94,-32.25,64.95,47.10,33.83,9.934,
02/07/2025,12:16:46.80,21.00,157.23,983.40,-2.55,0.45,0.50,-32.70,63.90,46.20,33.97,9.933,
02/07/2025,12:16:46.90,0.98,147.46,980.47,1.39,3.18,1.59,-32.40,65.10,45.75,33.88,9.933,
02/07/2025,12:16:47.00,-6.35,145.02,976.07,-1.38,0.95,0.95,-32.40,64.35,46.95,33.78,9.933,
02/07/2025,12:16:47.11,5.86,164.55,989.75,-0.92,3.02,-1.17,-32.55,64.05,47.85,33.64,9.933,
02/07/2025,12:16:47.21,1.46,148.93,988.28,-1.53,-0.36,1.67,-31.50,64.50,46.05,33.49,9.933,
02/07/2025,12:16:47.31,0.98,150.88,983.40,-1.68,2.26,-1.15,-31.95,63.90,48.0,33.59,9.933,
02/07/2025,12:16:47.41,8.79,153.32,999.02,-1.44,1.96,-1.80,-32.25,63.75,47.40,33.64,9.933,
02/07/2025,12:16:47.51,4.88,144.04,979.98,0.42,-1.85,-1.19,-32.55,64.50,46.80,33.83,9.933,
02/07/2025,12:16:47.61,-5.86,151.37,986.33,0.17,1.19,-1.79,-32.25,65.70,46.35,33.83,9.933,
02/07/2025,12:16:47.71,9.77,148.93,993.16,-1.17,-0.90,0.10,-32.55,62.25,47.85,33.88,9.933,
02/07/2025,12:16:47.81,7.32,151.86,997.07,-0.95,1.69,-1.23,-32.55,65.70,47.10,33.83,9.933,
02/07/2025,12:16:47.91,3.42,140.14,993.65,-0.06,0.52,0.56,-32.40,64.65,46.50,33.68,9.933,
02/07/2025,12:16:48.01,7.81,160.64,985.84,-0.18,2.14,-0.83,-31.05,63.75,47.10,33.83,9.933,
02/07/2025,12:16:48.11,-3.42,152.83,993.16,-3.63,1.20,-0.02,-31.80,64.95,46.35,33.59,9.934,
02/07/2025,12:16:48.21,-1.95,157.23,997.07,-0.30,0.13,0.46,-32.70,65.40,47.70,33.88,9.933,
02/07/2025,12:16:48.31,3.91,143.55,992.19,1.22,2.16,0.26,-30.75,64.50,46.05,33.78,9.933,
02/07/2025,12:16:48.42,-2.93,145.51,983.40,-0.79,1.89,-2.59,-30.15,65.10,46.50,33.88,9.933,
02/07/2025,12:16:48.52,1.46,150.39,990.23,-0.95,1.39,-1.67,-31.05,61.80,46.80,33.88,9.933,
02/07/2025,12:16:48.62,13.67,139.16,992.19,2.47,0.98,-2.34,-31.50,65.70,47.85,33.83,9.933,
02/07/2025,12:16:48.72,-6.84,146.00,989.75,-0.68,1.18,-1.40,-30.90,64.35,47.25,33.64,9.933,
02/07/2025,12:16:48.82,1.46,150.39,989.75,-0.78,1.22,-1.31,-31.50,65.25,46.05,33.83,9.933,
02/07/2025,12:16:48.92,-7.32,150.88,969.24,-1.19,1.79,-1.98,-30.90,63.15,46.95,33.59,9.933,
02/07/2025,12:16:49.02,-0.49,154.79,980.47,-2.26,4.03,-1.32,-31.50,65.25,46.05,33.68,9.933,
02/07/2025,12:16:49.12,-2.44,147.95,982.91,-1.12,1.18,-2.79,-31.20,64.35,46.50,33.83,9.933,
02/07/2025,12:16:49.22,-3.42,140.63,990.72,-0.56,0.65,1.18,-33.15,65.40,46.20,33.68,9.933,
02/07/2025,12:16:49.32,7.32,144.53,993.16,-0.97,-0.98,-0.02,-33.30,64.50,45.60,33.68,9.933,
02/07/2025,12:16:49.42,10.74,152.83,989.75,-1.27,0.15,-0.05,-32.70,62.40,46.20,33.64,9.933,
02/07/2025,12:16:49.52,7.81,146.00,985.84,-1.70,-0.39,-0.74,-31.65,64.65,46.20,33.78,9.932,
02/07/2025,12:16:49.62,-1.46,154.79,976.07,-1.10,0.20,1.66,-31.80,64.05,46.80,33.78,9.933,
02/07/2025,12:16:49.72,-1.95,154.30,996.09,0.03,2.86,-2.42,-30.75,63.75,46.80,33.35,9.933,
02/07/2025,12:16:49.83,-6.35,143.07,989.26,-0.79,0.89,-2.20,-31.80,63.30,46.35,33.59,9.933,
02/07/2025,12:16:49.93,9.77,151.37,990.23,-2.03,2.68,1.66,-33.30,63.75,46.80,33.68,9.933,
02/07/2025,12:16:50.03,3.42,150.88,984.38,0.89,3.39,-3.19,-30.75,63.0,46.80,33.64,9.933,
02/07/2025,12:16:50.13,5.86,148.93,986.82,0.16,2.03,-1.35,-31.20,62.70,46.50,33.78,9.933,
02/07/2025,12:16:50.23,6.35,152.34,986.33,0.30,1.96,2.94,-31.20,65.40,46.20,33.59,9.933,
02/07/2025,12:16:50.33,0.0,147.46,985.84,-0.58,1.08,1.05,-32.40,65.40,46.20,33.88,9.933,
02/07/2025,12:16:50.43,14.16,154.30,981.45,-1.38,3.33,-3.82,-31.95,63.90,46.50,33.83,9.933,
02/07/2025,12:16:50.53,-0.49,150.88,992.68,-0.18,0.31,-0.40,-30.30,64.50,47.40,33.35,9.933,
02/07/2025,12:16:50.63,-0.49,151.86,992.19,0.69,1.76,1.41,-31.05,63.0,46.35,33.49,9.933,
02/07/2025,12:16:50.73,-3.91,148.44,990.23,0.93,4.10,-2.74,-31.95,64.35,46.95,33.88,9.933,
02/07/2025,12:16:50.83,-2.93,158.69,988.77,0.54,1.57,-0.20,-31.65,63.90,47.25,33.83,9.933,
02/07/2025,12:16:50.93,-6.84,152.83,999.02,-0.55,1.37,0.30,-31.95,64.65,45.75,33.78,9.932,
02/07/2025,12:16:51.03,-2.44,144.53,985.35,-0.81,2.76,-2.76,-31.20,63.60,46.50,33.64,9.932,
02/07/2025,12:16:51.13,1.95,146.97,989.26,-2.27,1.19,-2.83,-30.90,64.35,46.50,33.68,9.933,
02/07/2025,12:16:51.24,6.84,163.09,984.86,0.72,3.76,-0.68,-32.55,63.75,46.35,33.78,9.933,
02/07/2025,12:16:51.34,9.28,142.58,985.84,-2.34,1.66,-3.19,-31.95,64.65,47.25,33.44,9.933,
02/07/2025,12:16:51.44,-0.49,143.07,987.79,-1.27,0.66,-1.69,-31.20,64.65,45.45,33.64,9.933,
02/07/2025,12:16:51.54,10.74,146.97,989.26,-0.31,-0.57,-0.28,-31.80,64.95,46.35,33.64,9.933,
02/07/2025,12:16:51.64,6.84,151.86,989.26,-4.34,2.26,-1.11,-31.80,63.75,46.35,33.64,9.933,
02/07/2025,12:16:51.74,12.21,156.25,979.49,-0.04,-0.30,-1.98,-31.95,63.60,46.95,33.68,9.933,
02/07/2025,12:16:51.84,13.18,163.09,993.65,0.78,1.20,2.47,-32.40,64.35,46.20,33.83,9.933,
02/07/2025,12:16:51.94,1.46,153.32,989.75,-1.56,1.91,-0.15,-30.90,64.65,46.20,34.02,9.933,
02/07/2025,12:16:52.04,8.30,136.23,983.40,-2.72,3.39,-0.81,-31.95,63.90,46.20,33.49,9.933,
02/07/2025,12:16:52.14,1.95,148.93,1000.49,-0.48,2.52,-0.74,-33.30,64.95,46.35,33.59,9.933,
02/07/2025,12:16:52.24,1.95,151.37,991.70,-1.85,-0.51,-2.60,-31.80,66.0,46.05,33.78,9.933,
02/07/2025,12:16:52.34,0.0,149.41,980.47,-0.46,3.83,-2.98,-30.90,65.40,46.95,33.78,9.932,
02/07/2025,12:16:52.44,3.42,143.55,988.77,-1.11,0.98,-1.09,-32.55,64.05,46.05,33.68,9.932,
02/07/2025,12:16:52.54,3.91,145.51,984.86,-1.69,0.08,2.89,-31.65,64.65,46.95,33.68,9.932,
02/07/2025,12:16:52.65,3.91,151.37,991.70,0.02,1.10,0.58,-31.20,63.15,47.25,33.83,9.933,
02/07/2025,12:16:52.75,3.91,153.81,982.91,-1.47,1.99,0.11,-33.15,65.40,47.25,33.68,9.933,
02/07/2025,12:16:52.85,7.81,149.90,996.09,-0.51,1.40,-2.95,-33.15,64.35,46.50,33.78,9.933,
02/07/2025,12:16:52.95,6.35,152.34,986.33,-2.89,3.69,-1.10,-30.75,65.70,47.40,33.49,9.933,
02/07/2025,12:16:53.05,4.39,136.23,988.77,0.76,2.94,0.54,-31.65,64.65,45.75,33.83,9.933,
02/07/2025,12:16:53.15,1.46,150.88,992.68,0.30,-0.72,-1.05,-31.65,63.15,46.95,33.59,9.933,
02/07/2025,12:16:53.25,11.23,163.09,988.28,-2.29,1.52,-0.76,-30.45,65.10,47.70,33.78,9.933,
02/07/2025,12:16:53.35,18.55,145.02,980.96,0.32,1.29,-0.59,-31.20,63.90,46.20,33.68,9.933,
02/07/2025,12:16:53.45,1.46,148.44,997.07,0.17,2.03,-2.04,-31.80,65.70,45.60,33.78,9.933,
02/07/2025,12:16:53.55,8.79,146.97,987.30,-1.30,-0.89,-1.82,-30.90,63.90,46.95,33.78,9.933,
02/07/2025,12:16:53.65,0.98,149.90,992.19,0.34,2.0,0.34,-30.90,64.35,46.20,33.49,9.933,
02/07/2025,12:16:53.75,3.91,149.41,996.09,-0.75,-0.95,1.82,-32.40,65.10,46.95,33.78,9.932,
02/07/2025,12:16:53.85,6.35,159.67,989.26,-1.83,2.91,-0.88,-33.30,65.25,46.80,33.83,9.932,
02/07/2025,12:16:53.95,3.42,151.37,981.93,0.02,1.52,1.42,-32.25,64.05,44.55,33.64,9.932,
02/07/2025,12:16:54.06,4.88,154.30,1000.0,1.23,3.10,-0.95,-33.15,65.10,45.75,33.64,9.933,
02/07/2025,12:16:54.16,6.35,152.83,995.61,-0.33,2.66,-2.24,-32.25,64.95,46.80,33.64,9.933,
02/07/2025,12:16:54.26,-0.49,148.44,978.52,-0.21,3.70,0.40,-31.50,64.95,46.05,33.78,9.933,
02/07/2025,12:16:54.36,-20.02,142.58,987.30,-0.21,1.57,-1.11,-31.95,65.10,46.50,33.78,9.933,
02/07/2025,12:16:54.46,9.77,149.90,980.47,1.15,1.44,-2.55,-31.95,64.65,46.20,33.35,9.933,
02/07/2025,12:16:54.56,5.86,146.48,987.79,1.38,0.69,-2.26,-31.50,64.95,47.10,33.49,9.933,
02/07/2025,12:16:54.66,7.81,146.00,992.19,-0.18,1.92,-0.55,-30.45,65.10,47.25,33.64,9.933,
02/07/2025,12:16:54.76,1.46,160.16,982.91,0.55,0.91,-0.91,-31.50,64.95,45.60,33.68,9.933,
02/07/2025,12:16:54.86,-4.88,149.90,990.72,1.98,2.04,-2.92,-30.45,63.60,46.50,33.64,9.933,
02/07/2025,12:16:54.96,7.32,147.95,990.23,-0.38,-1.50,-1.73,-30.75,63.30,46.05,33.49,9.933,
02/07/2025,12:16:55.06,13.18,151.37,990.23,-2.50,1.02,-2.51,-31.05,64.05,46.05,33.88,9.932,
02/07/2025,12:16:55.16,6.35,157.71,1004.39,-1.11,0.09,4.01,-31.95,63.60,47.25,33.68,9.932,
02/07/2025,12:16:55.26,8.30,152.83,991.21,-1.14,1.38,2.43,-30.75,64.95,47.40,33.35,9.932,
02/07/2025,12:16:55.36,5.37,145.02,996.09,-0.43,2.17,-0.15,-30.90,63.90,47.25,33.64,9.932,
02/07/2025,12:16:55.47,-0.98,146.00,981.45,-0.76,0.16,-0.63,-30.45,65.10,45.45,33.59,9.932,
02/07/2025,12:16:55.57,-3.91,133.30,991.70,0.31,3.22,1.11,-31.95,64.35,46.20,33.44,9.933,
02/07/2025,12:16:55.67,0.0,147.95,989.75,-0.82,4.47,-4.76,-31.65,65.85,47.25,33.68,9.933,
02/07/2025,12:16:55.77,1.95,155.27,996.58,-0.27,1.11,-0.27,-30.90,65.10,47.25,33.35,9.933,
02/07/2025,12:16:55.87,-6.84,153.81,982.42,-1.13,-0.74,-1.22,-31.95,64.65,48.0,33.59,9.933,
02/07/2025,12:16:55.97,-4.88,162.11,989.26,-0.95,0.98,-2.20,-32.70,65.40,47.25,33.49,9.933,
02/07/2025,12:16:56.07,-5.37,149.41,984.38,1.91,1.47,0.34,-32.25,64.95,46.80,33.64,9.933,
02/07/2025,12:16:56.17,8.30,156.25,987.30,-1.21,2.38,1.28,-31.95,65.10,46.50,33.68,9.933,
02/07/2025,12:16:56.27,-3.42,154.30,985.84,0.75,0.63,-0.48,-31.65,64.65,45.75,33.64,9.933,
02/07/2025,12:16:56.37,5.37,155.76,984.38,0.85,0.09,-0.50,-33.15,65.10,47.70,33.30,9.933,
02/07/2025,12:16:56.47,5.37,142.09,983.89,1.02,0.99,-0.36,-32.70,63.90,45.75,33.59,9.932,
02/07/2025,12:16:56.57,8.30,141.60,1004.88,-2.03,0.98,-1.64,-32.40,65.10,46.95,33.64,9.932,
02/07/2025,12:16:56.67,-1.95,143.07,998.05,-0.67,1.75,1.15,-31.95,64.65,46.20,33.35,9.932,
02/07/2025,12:16:56.78,9.77,154.30,987.79,-1.22,0.46,0.09,-31.05,65.25,46.35,33.44,9.932,
02/07/2025,12:16:56.88,-4.88,146.48,999.51,-0.88,1.99,-0.20,-31.65,64.35,46.50,33.78,9.932,
02/07/2025,12:16:56.98,7.81,152.83,981.93,-1.23,0.46,0.54,-32.40,65.10,46.50,33.78,9.932,
02/07/2025,12:16:57.08,-2.44,143.55,979.00,-1.0,1.95,-0.99,-29.55,63.75,47.10,33.68,9.933,
02/07/2025,12:16:57.18,6.35,151.86,987.30,0.05,2.26,0.53,-31.50,64.95,44.85,33.64,9.933,
02/07/2025,12:16:57.28,1.95,162.11,999.51,-0.92,1.92,0.01,-31.80,63.75,47.10,33.64,9.933,
02/07/2025,12:16:57.38,3.42,150.39,986.82,-0.82,2.49,-0.11,-33.45,63.90,45.45,33.35,9.933,
02/07/2025,12:16:57.48,0.0,150.88,988.28,0.37,3.53,-1.92,-32.40,65.10,46.95,33.30,9.933,
02/07/2025,12:16:57.58,11.23,159.18,987.30,-1.32,2.48,-0.17,-31.65,64.65,46.20,33.64,9.933,
02/07/2025,12:16:57.68,2.44,147.46,979.00,-1.04,3.27,-1.30,-31.05,64.05,47.85,33.49,9.933,
02/07/2025,12:16:57.78,9.77,156.74,991.21,0.95,4.85,1.85,-33.15,64.35,46.50,33.44,9.933,
02/07/2025,12:16:57.88,-2.44,142.58,990.72,0.73,1.39,-0.09,-30.90,63.90,46.95,33.64,9.932,
02/07/2025,12:16:57.98,0.0,146.00,991.21,-2.08,1.67,-1.01,-30.30,64.50,46.35,33.49,9.932,
02/07/2025,12:16:58.08,12.21,154.79,999.02,-0.74,2.61,-0.12,-31.95,64.65,47.25,33.30,9.932,
02/07/2025,12:16:58.19,13.18,150.39,986.82,2.06,-0.37,0.19,-31.50,63.75,46.05,33.30,9.932,
02/07/2025,12:16:58.29,-7.81,150.88,989.26,-1.67,1.86,-3.29,-31.50,63.0,46.80,33.59,9.932,
02/07/2025,12:16:58.39,2.93,148.44,996.09,0.20,-0.44,0.79,-30.90,63.90,46.20,33.83,9.932,
02/07/2025,12:16:58.49,0.0,151.37,992.19,-0.72,2.93,-2.96,-30.30,65.25,46.35,33.59,9.932,
02/07/2025,12:16:58.59,10.25,145.51,1000.0,0.11,2.58,-1.07,-32.40,64.35,47.70,33.64,9.933,
02/07/2025,12:16:58.69,2.93,148.44,983.89,0.34,0.48,-1.23,-33.0,65.25,46.80,33.44,9.933,
02/07/2025,12:16:58.79,8.79,155.27,994.63,-0.62,2.21,0.02,-31.65,65.40,45.45,33.25,9.933,
02/07/2025,12:16:58.89,8.30,149.41,982.91,-0.24,-1.11,-0.70,-31.50,63.75,46.35,33.35,9.933,
02/07/2025,12:16:58.99,1.95,152.34,993.16,0.28,1.07,1.29,-32.25,64.05,46.35,33.64,9.933,
02/07/2025,12:16:59.09,10.74,151.86,993.16,-1.11,1.93,-0.24,-32.25,64.50,46.35,33.35,9.933,
02/07/2025,12:16:59.19,-1.46,149.41,995.12,-0.72,2.48,-1.56,-31.50,63.30,47.10,33.59,9.933,
02/07/2025,12:16:59.29,7.81,148.93,988.77,-0.50,2.49,-2.08,-31.20,64.65,47.25,33.68,9.932,
02/07/2025,12:16:59.39,8.79,144.04,985.84,2.85,1.89,-1.23,-31.50,64.95,45.60,33.25,9.932,
02/07/2025,12:16:59.49,2.93,142.58,986.33,-0.24,-0.73,-1.21,-31.95,63.60,46.50,33.30,9.932,
02/07/2025,12:16:59.60,13.67,146.00,988.28,1.02,0.85,0.88,-31.50,64.95,47.10,33.59,9.932,
02/07/2025,12:16:59.70,15.63,141.60,994.14,-1.98,3.11,-1.47,-32.25,63.75,46.35,33.35,9.932,
02/07/2025,12:16:59.80,-6.84,158.69,990.72,-0.66,2.99,1.85,-31.20,65.10,46.20,33.64,9.932,
02/07/2025,12:16:59.90,15.14,143.55,987.30,-1.14,2.10,-2.71,-30.45,65.10,47.25,33.49,9.932,
02/07/2025,12:17:00.00,8.79,154.79,996.58,-0.92,0.92,-1.02,-31.80,64.95,47.10,33.68,9.933,
02/07/2025,12:17:00.10,2.93,152.83,988.28,-0.82,1.62,-1.47,-31.50,64.50,48.15,33.35,9.933,
02/07/2025,12:17:00.20,1.95,146.48,994.14,-0.11,1.93,-3.71,-31.05,64.05,47.85,33.35,9.933,
02/07/2025,12:17:00.30,-6.84,151.37,992.68,-0.81,-1.15,-0.09,-31.20,64.65,46.50,33.44,9.933,
02/07/2025,12:17:00.40,-5.37,150.88,986.82,-1.60,0.05,0.38,-32.70,64.35,46.50,33.59,9.933,
02/07/2025,12:17:00.50,13.67,149.90,989.75,-2.36,0.37,-1.47,-33.30,66.0,47.85,33.78,9.933,
02/07/2025,12:17:00.60,3.42,147.95,990.23,0.21,3.21,-0.96,-30.90,63.15,47.70,33.64,9.933,
02/07/2025,12:17:00.70,9.77,158.20,990.23,0.62,3.27,-4.47,-31.50,64.05,45.60,33.68,9.932,
02/07/2025,12:17:00.80,2.44,154.79,981.45,-0.45,0.76,1.08,-32.40,63.15,47.70,33.44,9.932,
02/07/2025,12:17:00.90,4.88,156.25,987.30,-0.30,1.32,-2.23,-33.15,65.10,46.50,33.25,9.932,
02/07/2025,12:17:01.01,-3.91,152.83,993.65,-1.24,0.49,-0.12,-30.45,65.10,46.50,33.49,9.932,
02/07/2025,12:17:01.11,0.98,163.57,999.02,-1.43,0.44,0.63,-32.25,63.75,46.35,33.49,9.932,
02/07/2025,12:17:01.21,-7.81,145.02,983.40,-2.44,2.32,-0.89,-32.55,63.0,48.15,33.49,9.932,
02/07/2025,12:17:01.31,15.63,156.25,983.40,-0.29,2.50,0.10,-32.40,63.90,46.95,33.44,9.932,
02/07/2025,12:17:01.41,7.81,148.44,985.84,-1.0,1.34,0.41,-31.50,64.95,47.10,33.64,9.932,
02/07/2025,12:17:01.51,0.49,142.09,989.26,-1.07,4.62,0.95,-31.50,64.05,46.35,33.35,9.933,
02/07/2025,12:17:01.61,19.53,157.71,987.79,-0.78,1.30,-1.75,-30.45,64.35,47.70,33.49,9.933,
02/07/2025,12:17:01.71,6.35,144.53,999.51,-1.95,2.86,-0.79,-32.40,65.40,46.50,33.64,9.933,
02/07/2025,12:17:01.81,7.81,154.30,1000.0,-1.03,1.30,-0.04,-31.65,64.65,46.95,33.64,9.933,
02/07/2025,12:17:01.91,1.46,148.44,987.79,0.44,1.27,-0.47,-31.65,65.40,45.75,33.44,9.933,
02/07/2025,12:17:02.01,-10.74,147.95,990.72,-2.85,1.57,-1.27,-31.20,63.60,45.75,33.68,9.933,
02/07/2025,12:17:02.11,6.35,159.67,980.96,-0.97,2.56,-1.10,-32.25,64.50,44.85,33.25,9.932,
02/07/2025,12:17:02.21,-5.37,147.95,984.86,-2.49,1.99,1.34,-32.40,62.70,46.50,33.35,9.932,
02/07/2025,12:17:02.31,9.28,156.74,985.35,-1.63,1.74,-2.11,-31.95,65.25,46.35,33.59,9.932,
02/07/2025,12:17:02.42,8.30,160.16,989.26,-0.21,1.46,0.41,-31.20,63.15,47.25,33.44,9.932,
02/07/2025,12:17:02.52,6.35,145.51,985.35,-1.34,2.63,-1.53,-30.90,65.10,47.70,33.44,9.932,
02/07/2025,12:17:02.62,0.49,152.83,987.79,-0.34,2.35,-2.82,-32.40,63.60,48.30,33.30,9.932,
02/07/2025,12:17:02.72,-0.49,144.53,998.05,-1.76,4.39,-0.70,-31.50,64.50,46.05,33.49,9.932,
02/07/2025,12:17:02.82,5.86,156.25,994.14,-0.76,2.47,-2.15,-32.70,64.65,45.45,33.11,9.932,
02/07/2025,12:17:02.92,1.95,149.41,983.40,-1.98,1.31,0.18,-31.65,65.40,46.95,33.64,9.932,
02/07/2025,12:17:03.02,10.25,152.83,985.35,-0.73,2.74,-2.45,-33.0,64.50,46.35,33.44,9.933,
02/07/2025,12:17:03.12,11.72,166.02,983.89,0.26,-0.47,-0.19,-32.40,64.35,46.50,33.35,9.933,
02/07/2025,12:17:03.22,1.46,151.37,984.86,0.18,1.09,0.11,-32.40,63.90,47.25,33.35,9.933,
02/07/2025,12:17:03.32,9.28,144.04,993.16,-4.32,1.85,-1.02,-33.30,64.50,47.10,33.35,9.933,
02/07/2025,12:17:03.42,-0.49,148.93,990.72,0.08,1.31,-1.98,-31.50,64.50,47.85,33.30,9.933,
02/07/2025,12:17:03.52,9.77,140.14,995.61,-1.69,3.30,-2.69,-30.90,64.35,45.45,33.44,9.932,
02/07/2025,12:17:03.62,-3.91,167.48,989.26,-2.79,-1.63,0.80,-31.65,64.35,47.70,33.25,9.932,
02/07/2025,12:17:03.72,5.37,145.51,986.33,0.98,2.82,-0.44,-31.50,63.75,47.10,33.44,9.932,
02/07/2025,12:17:03.83,9.77,151.86,991.70,-0.79,1.46,-2.50,-31.50,66.0,46.35,33.35,9.932,
02/07/2025,12:17:03.93,-9.77,162.60,999.02,0.55,0.58,3.82,-31.65,63.90,47.25,33.44,9.932,
02/07/2025,12:17:04.03,5.86,154.79,990.23,-1.98,0.90,-2.68,-30.45,64.65,47.70,33.30,9.932,
02/07/2025,12:17:04.13,-2.93,147.46,983.40,-0.71,1.91,1.44,-33.45,65.10,46.95,33.35,9.932,
02/07/2025,12:17:04.23,-0.49,140.63,981.93,0.21,2.57,-1.26,-29.40,63.90,45.45,33.35,9.932,
02/07/2025,12:17:04.33,4.39,147.95,985.35,-0.71,0.23,-1.59,-32.25,64.50,46.05,33.49,9.932,
02/07/2025,12:17:04.43,11.23,138.18,979.49,-1.89,1.84,1.08,-31.20,64.65,46.95,33.35,9.933,
02/07/2025,12:17:04.53,4.88,143.07,990.72,-0.44,2.82,0.37,-31.65,64.35,48.0,33.49,9.933,
02/07/2025,12:17:04.63,-0.98,151.37,986.33,-1.49,2.59,-1.27,-31.65,63.90,46.95,33.68,9.933,
02/07/2025,12:17:04.73,11.72,147.46,1001.95,2.37,1.21,1.33,-31.20,64.35,47.25,33.35,9.933,
02/07/2025,12:17:04.83,0.98,149.41,988.28,-0.16,2.42,-1.55,-32.40,65.10,46.95,33.44,9.933,
02/07/2025,12:17:04.93,6.84,150.88,998.05,1.47,2.01,-3.76,-31.65,62.70,46.50,33.44,9.932,
02/07/2025,12:17:05.03,0.98,146.48,988.28,-0.06,2.60,-0.70,-31.05,64.05,48.15,33.44,9.932,
02/07/2025,12:17:05.13,12.70,139.16,983.40,1.18,2.36,-2.03,-31.50,64.95,46.05,33.30,9.932,
02/07/2025,12:17:05.23,0.0,138.18,986.33,-0.26,1.45,-1.83,-32.55,64.95,46.80,33.44,9.932,
02/07/2025,12:17:05.34,10.25,147.95,996.58,0.82,-0.23,-0.68,-31.20,64.35,45.15,33.49,9.932,
02/07/2025,12:17:05.44,-11.23,151.37,980.47,-2.23,1.40,-2.76,-33.15,64.65,46.20,33.35,9.932,
02/07/2025,12:17:05.54,-9.28,146.97,990.72,0.21,1.48,1.04,-31.65,64.35,47.25,33.59,9.932,
02/07/2025,12:17:05.64,0.49,152.83,981.93,-0.69,2.34,1.08,-31.20,63.90,46.95,33.49,9.932,
02/07/2025,12:17:05.74,12.21,160.16,988.28,-1.27,-0.61,0.71,-31.05,63.30,47.10,33.35,9.932,
02/07/2025,12:17:05.84,3.42,137.21,984.86,0.92,1.24,0.66,-32.70,64.65,46.50,33.35,9.932,
02/07/2025,12:17:05.94,5.86,153.32,990.23,-0.82,-0.85,1.75,-31.95,63.60,46.20,33.35,9.933,
02/07/2025,12:17:06.04,7.81,159.18,991.21,-2.49,2.86,1.92,-31.50,64.50,46.35,33.30,9.933,
02/07/2025,12:17:06.14,6.84,151.37,989.26,-1.06,4.50,-1.98,-30.90,65.40,45.75,33.44,9.933,
02/07/2025,12:17:06.24,-1.95,141.60,1001.46,-2.53,4.36,-1.31,-32.40,63.60,47.70,33.44,9.933,
02/07/2025,12:17:06.34,11.72,149.90,995.12,0.40,0.38,-0.68,-31.80,63.75,46.80,33.35,9.932,
02/07/2025,12:17:06.44,10.74,152.34,989.26,-1.59,4.36,-1.81,-30.45,63.15,46.50,33.16,9.932,
02/07/2025,12:17:06.54,15.14,152.83,988.77,1.13,1.14,1.86,-32.25,65.70,47.85,33.44,9.932,
02/07/2025,12:17:06.65,-3.42,145.51,985.35,-1.79,1.24,-0.64,-32.25,65.70,46.05,33.35,9.932,
02/07/2025,12:17:06.75,-3.42,153.32,998.05,-2.90,1.11,-1.95,-31.95,66.30,45.15,33.35,9.932,
02/07/2025,12:17:06.85,7.32,142.58,973.14,-0.63,0.06,0.52,-30.75,65.70,46.05,33.49,9.932,
02/07/2025,12:17:06.95,17.09,150.39,995.12,-0.94,1.40,-1.62,-31.95,63.15,46.50,33.64,9.932,
02/07/2025,12:17:07.05,-1.46,162.11,986.33,0.13,-0.63,0.45,-31.20,63.90,46.95,33.64,9.932,
02/07/2025,12:17:07.15,-10.74,157.71,991.21,-0.60,1.83,-0.40,-32.55,64.05,46.05,33.78,9.932,
02/07/2025,12:17:07.25,2.93,148.93,992.68,1.04,0.21,0.25,-30.0,64.50,47.10,33.25,9.932,
02/07/2025,12:17:07.35,6.84,147.95,991.70,-2.02,2.05,-0.58,-31.80,64.05,45.60,33.35,9.932,
02/07/2025,12:17:07.45,4.39,145.51,1002.44,-1.83,0.80,-2.93,-32.55,65.25,46.05,33.25,9.933,
02/07/2025,12:17:07.55,-10.25,159.67,994.14,0.17,1.28,0.21,-31.05,64.50,46.80,33.35,9.933,
02/07/2025,12:17:07.65,0.49,154.79,985.84,-1.50,1.59,0.19,-31.05,64.05,48.60,33.35,9.933,
02/07/2025,12:17:07.75,9.28,139.16,975.10,0.61,-0.06,-2.14,-32.25,64.95,47.40,33.49,9.932,
02/07/2025,12:17:07.85,7.81,155.76,991.70,-1.68,1.76,0.98,-30.90,63.90,48.30,33.35,9.932,
02/07/2025,12:17:07.95,6.84,151.86,997.07,0.34,3.14,-0.64,-32.55,64.95,47.10,33.25,9.932,
02/07/2025,12:17:08.05,2.44,150.39,991.70,0.21,1.46,0.19,-33.0,65.70,44.10,33.30,9.932,
02/07/2025,12:17:08.16,-3.91,160.16,984.86,-0.15,1.50,-3.85,-31.50,64.05,46.80,33.49,9.932,
02/07/2025,12:17:08.26,0.0,157.23,993.65,-0.51,1.24,-0.86,-31.05,64.95,47.10,33.25,9.932,
02/07/2025,12:17:08.36,3.91,156.74,983.40,0.79,0.53,1.53,-29.55,64.05,47.10,33.35,9.932,
02/07/2025,12:17:08.46,7.32,161.13,986.82,-0.43,2.56,-0.79,-32.25,66.45,46.80,33.44,9.932,
02/07/2025,12:17:08.56,3.91,143.55,995.12,-0.13,2.19,0.89,-32.25,64.50,46.80,33.35,9.932,
02/07/2025,12:17:08.66,2.44,146.48,974.61,0.24,3.18,-1.40,-31.80,64.50,47.85,33.35,9.932,
02/07/2025,12:17:08.76,5.37,157.23,993.16,0.21,1.66,1.95,-32.40,64.65,46.20,33.44,9.932,
02/07/2025,12:17:08.86,2.93,144.04,1002.44,0.26,2.34,-0.04,-31.65,65.10,46.50,33.49,9.932,
02/07/2025,12:17:08.96,-0.49,150.39,994.14,2.82,2.25,-1.91,-31.05,65.25,49.35,33.35,9.933,
02/07/2025,12:17:09.06,4.39,158.69,997.07,-0.56,0.12,-0.58,-30.45,64.35,46.95,33.44,9.933,
02/07/2025,12:17:09.16,1.95,139.16,986.33,-0.88,1.50,-2.75,-30.75,64.05,46.80,33.25,9.932,
02/07/2025,12:17:09.26,4.39,150.88,995.61,0.0,-0.15,0.91,-31.20,64.35,46.50,33.49,9.932,
02/07/2025,12:17:09.36,-10.25,147.95,992.19,-0.95,1.47,1.52,-33.75,63.75,46.05,33.49,9.932,
02/07/2025,12:17:09.46,7.81,155.76,994.14,-0.32,1.46,-0.56,-30.75,65.25,46.80,33.35,9.932,
02/07/2025,12:17:09.57,-2.93,154.30,976.07,-0.15,1.78,-3.38,-31.95,63.60,47.25,33.49,9.932,
02/07/2025,12:17:09.67,-7.81,140.14,1002.44,-1.24,2.08,-0.44,-32.40,63.15,46.95,33.44,9.932,
02/07/2025,12:17:09.77,2.44,160.64,989.26,-0.23,2.19,-1.52,-31.65,65.10,45.75,33.30,9.932,
02/07/2025,12:17:09.87,4.88,142.09,991.21,-1.30,2.71,0.86,-30.90,63.90,45.75,33.35,9.932,
02/07/2025,12:17:09.97,0.0,152.34,995.61,0.28,0.66,0.30,-30.30,63.75,47.40,33.35,9.932,
02/07/2025,12:17:10.07,3.42,155.76,984.86,-0.18,1.56,0.93,-31.20,65.10,47.70,33.35,9.932,
02/07/2025,12:17:10.17,7.32,155.76,1000.0,-0.24,1.76,-0.44,-32.25,63.75,45.30,33.35,9.932,
02/07/2025,12:17:10.27,5.37,148.44,993.65,-0.95,1.34,1.11,-31.20,64.65,47.70,33.35,9.932,
02/07/2025,12:17:10.37,3.42,150.88,986.33,-0.84,3.92,-0.53,-30.75,64.95,46.05,33.35,9.933,
02/07/2025,12:17:10.47,5.37,142.58,998.05,1.23,0.89,-0.76,-31.20,65.10,45.75,33.44,9.933,
02/07/2025,12:17:10.57,-8.79,160.16,991.21,-0.36,0.24,-0.92,-32.40,64.35,46.95,33.25,9.933,
02/07/2025,12:17:10.67,11.23,148.93,991.21,-0.83,2.95,-1.75,-33.30,64.95,46.80,33.30,9.932,
02/07/2025,12:17:10.77,8.30,158.20,979.00,-0.53,2.52,-0.36,-31.95,64.35,46.95,33.35,9.932,
02/07/2025,12:17:10.87,3.91,146.48,983.89,0.15,3.11,-1.60,-32.40,64.65,46.50,33.25,9.932,
02/07/2025,12:17:10.98,2.93,139.65,980.47,0.82,2.11,-2.42,-31.80,63.75,46.80,33.11,9.932,
02/07/2025,12:17:11.08,-4.39,154.79,985.84,-0.37,1.65,-1.83,-31.65,63.60,45.45,33.35,9.932,
02/07/2025,12:17:11.18,8.30,152.34,985.84,-1.11,3.89,-2.86,-30.15,64.65,46.50,33.35,9.932,
02/07/2025,12:17:11.28,7.81,162.11,987.79,-0.56,0.08,0.27,-30.75,63.30,46.80,33.59,9.932,
02/07/2025,12:17:11.38,-7.81,152.34,992.19,-0.06,5.60,0.86,-32.25,64.05,46.05,33.25,9.932,
02/07/2025,12:17:11.48,0.0,148.44,986.33,0.41,-0.76,-0.63,-31.20,63.15,47.25,33.25,9.932,
02/07/2025,12:17:11.58,-0.49,168.95,993.16,-0.86,3.33,-0.37,-32.55,65.70,45.60,33.35,9.932,
02/07/2025,12:17:11.68,11.23,151.86,998.05,-0.75,0.14,0.85,-32.40,65.85,47.70,33.44,9.932,
02/07/2025,12:17:11.78,-10.74,145.51,990.72,-1.54,2.27,-1.44,-32.25,63.75,47.10,33.35,9.932,
02/07/2025,12:17:11.88,-3.42,157.71,989.75,0.63,3.05,-1.83,-32.40,63.60,46.95,33.25,9.933,
02/07/2025,12:17:11.98,5.37,153.32,992.68,0.11,1.19,1.27,-31.80,64.05,46.05,33.44,9.933,
02/07/2025,12:17:12.08,-1.46,154.79,985.84,-0.31,0.86,-2.43,-31.20,63.90,47.25,33.30,9.932,
02/07/2025,12:17:12.18,3.42,153.32,996.58,0.20,1.68,-0.83,-31.65,65.85,46.50,33.25,9.932,
02/07/2025,12:17:12.28,6.35,155.76,984.86,-0.17,2.21,-0.60,-31.95,65.40,46.95,33.35,9.932,
02/07/2025,12:17:12.39,4.39,146.00,995.61,-0.82,2.04,-1.69,-33.90,65.40,45.75,33.35,9.932,
02/07/2025,12:17:12.49,2.44,146.00,987.79,-2.16,1.47,-0.45,-30.15,64.65,46.50,33.35,9.932,
02/07/2025,12:17:12.59,9.28,146.48,994.14,-0.88,1.66,0.22,-31.20,63.15,46.95,33.49,9.932,
02/07/2025,12:17:12.69,2.93,156.74,987.30,-0.96,-0.94,-1.22,-33.75,64.95,46.05,33.30,9.932,
02/07/2025,12:17:12.79,3.42,147.46,993.16,-1.92,-0.38,-1.63,-31.80,64.95,46.05,33.11,9.932,
02/07/2025,12:17:12.89,7.32,153.32,993.65,-1.11,1.38,1.52,-31.65,63.15,46.95,33.44,9.932,
02/07/2025,12:17:12.99,-2.44,145.51,987.30,-1.29,3.75,-0.17,-32.25,64.05,47.10,33.25,9.932,
02/07/2025,12:17:13.09,-3.42,151.37,987.30,1.15,2.32,-0.43,-32.40,64.65,46.50,33.35,9.932,
02/07/2025,12:17:13.19,3.42,150.88,994.63,-1.21,2.24,-2.56,-31.65,63.90,47.70,33.25,9.932,
02/07/2025,12:17:13.29,-10.25,153.32,995.12,0.74,1.11,-2.56,-31.50,64.95,46.35,32.92,9.932,
02/07/2025,12:17:13.39,-0.98,153.81,987.79,-0.32,1.51,0.11,-32.55,66.0,46.80,33.35,9.933,
02/07/2025,12:17:13.49,15.14,151.86,990.23,-2.29,0.82,-0.18,-31.65,63.60,48.75,33.16,9.932,
02/07/2025,12:17:13.59,3.42,151.86,989.26,-0.27,-0.32,-0.27,-30.75,64.50,47.10,33.25,9.932,
02/07/2025,12:17:13.69,-3.91,146.97,990.23,-1.58,1.70,-2.61,-31.05,64.05,47.40,33.25,9.932,
02/07/2025,12:17:13.80,-7.32,143.07,981.93,-0.15,0.79,-0.53,-31.20,64.65,47.25,33.30,9.932,
02/07/2025,12:17:13.90,0.98,151.37,995.61,-1.20,0.31,-0.99,-32.40,65.10,45.45,33.11,9.932,
02/07/2025,12:17:14.00,11.72,146.48,987.30,-1.08,0.24,-0.60,-31.65,63.15,45.45,33.25,9.932,
02/07/2025,12:17:14.10,7.32,144.04,982.91,-1.32,2.51,-0.45,-32.70,65.40,48.0,33.30,9.932,
02/07/2025,12:17:14.20,-4.88,145.51,991.21,-0.56,0.13,-0.45,-31.80,65.70,47.10,33.35,9.932,
02/07/2025,12:17:14.30,7.81,148.44,995.61,-2.27,1.34,-0.93,-31.50,64.95,47.10,33.30,9.932,
02/07/2025,12:17:14.40,3.91,146.00,989.75,0.18,1.49,-2.53,-31.50,64.05,46.80,33.49,9.932,
02/07/2025,12:17:14.50,-3.91,153.32,985.84,2.27,1.40,-0.14,-31.65,64.35,46.95,32.97,9.932,
02/07/2025,12:17:14.60,-1.46,146.00,996.09,-0.57,1.79,-1.78,-31.50,64.95,46.35,33.35,9.932,
02/07/2025,12:17:14.70,6.35,146.00,984.38,1.44,-0.15,0.15,-32.70,63.15,46.50,33.25,9.932,
02/07/2025,12:17:14.80,7.81,150.88,982.42,-1.32,0.04,0.91,-32.40,65.10,45.75,33.35,9.933,
02/07/2025,12:17:14.90,13.67,151.37,987.30,-0.18,1.10,-0.65,-31.65,63.60,45.75,33.30,9.933,
02/07/2025,12:17:15.00,-3.91,154.30,1000.0,-0.35,2.66,-1.70,-32.55,65.70,46.05,33.11,9.932,
02/07/2025,12:17:15.10,0.98,149.90,989.75,-2.11,1.32,-0.69,-31.80,64.50,46.05,33.16,9.932,
02/07/2025,12:17:15.20,6.35,159.18,982.42,1.94,1.21,-1.27,-33.0,64.95,45.60,33.11,9.932,
02/07/2025,12:17:15.31,-2.93,141.60,971.68,-1.44,0.27,1.25,-31.95,64.35,47.25,33.35,9.932,
02/07/2025,12:17:15.41,6.35,155.76,983.89,0.60,2.07,-2.08,-32.55,64.50,46.05,33.11,9.932,
02/07/2025,12:17:15.51,1.46,155.27,991.21,-2.03,2.89,1.07,-31.05,64.05,45.60,33.30,9.932,
02/07/2025,12:17:15.61,2.93,154.30,992.68,0.79,3.05,0.57,-31.80,64.05,47.10,33.06,9.932,
02/07/2025,12:17:15.71,18.55,153.81,989.75,0.91,0.97,-1.42,-31.20,64.35,46.95,33.16,9.932,
02/07/2025,12:17:15.81,17.09,161.13,975.59,-0.49,3.02,-2.09,-32.40,63.15,47.70,33.30,9.932,
02/07/2025,12:17:15.91,3.42,158.69,988.28,-0.14,1.32,-2.45,-33.45,64.35,46.95,33.35,9.932,
02/07/2025,12:17:16.01,7.81,156.25,988.77,-0.08,2.08,-2.49,-31.80,65.25,47.85,33.30,9.932,
02/07/2025,12:17:16.11,10.25,152.83,989.26,-1.09,1.25,0.34,-30.75,64.50,47.40,33.11,9.932,
02/07/2025,12:17:16.21,-7.32,153.32,980.47,-2.69,-0.96,-0.33,-31.65,63.90,46.95,33.16,9.932,
02/07/2025,12:17:16.31,2.44,151.37,982.42,-0.28,1.35,0.33,-30.90,65.10,45.75,33.35,9.932,
02/07/2025,12:17:16.41,9.77,158.20,986.33,-0.31,1.42,-2.41,-31.50,65.70,46.80,33.35,9.932,
02/07/2025,12:17:16.51,8.30,135.25,993.16,1.24,3.19,-0.32,-30.15,64.35,46.50,33.25,9.932,
02/07/2025,12:17:16.61,-8.30,146.48,986.33,-1.27,2.27,0.19,-30.75,65.25,46.05,33.11,9.932,
02/07/2025,12:17:16.72,-6.35,146.97,986.33,-0.60,0.97,0.29,-32.40,64.65,46.20,33.11,9.932,
02/07/2025,12:17:16.82,5.37,149.41,989.26,-0.83,1.38,-0.17,-32.55,63.0,47.10,33.16,9.932,
02/07/2025,12:17:16.92,18.07,152.34,995.61,0.94,1.40,1.60,-31.80,64.95,45.60,33.49,9.932,
02/07/2025,12:17:17.02,16.60,144.53,986.33,-2.73,1.85,-1.55,-31.80,63.75,47.40,33.16,9.932,
02/07/2025,12:17:17.12,-4.88,142.58,991.70,-1.63,0.71,-0.08,-31.20,64.65,48.0,33.35,9.932,
02/07/2025,12:17:17.22,7.32,151.37,992.68,1.01,0.74,1.14,-31.95,63.90,45.75,33.11,9.932,
02/07/2025,12:17:17.32,10.25,154.30,991.70,-0.87,2.67,-1.50,-31.95,65.10,46.50,32.92,9.932,
02/07/2025,12:17:17.42,3.91,149.90,989.75,2.71,0.19,-2.17,-30.30,64.05,46.80,33.25,9.932,
02/07/2025,12:17:17.52,-4.39,151.37,984.86,-0.46,0.32,0.56,-31.65,63.60,44.70,33.30,9.932,
02/07/2025,12:17:17.62,3.42,149.41,997.56,0.30,0.0,-0.11,-30.75,64.95,47.10,33.25,9.932,
02/07/2025,12:17:17.72,13.18,146.48,1000.49,-1.63,1.56,-3.23,-31.05,65.70,47.40,33.16,9.932,
02/07/2025,12:17:17.82,-5.86,130.86,979.98,1.55,1.99,0.50,-31.20,64.35,46.50,33.11,9.932,
02/07/2025,12:17:17.92,-0.49,140.14,993.16,0.95,-0.76,-0.92,-32.25,64.05,46.80,33.06,9.932,
02/07/2025,12:17:18.02,6.35,151.37,989.26,0.29,0.11,-0.15,-30.90,63.90,45.75,33.25,9.932,
02/07/2025,12:17:18.13,-4.88,138.67,991.21,-0.60,2.62,-0.22,-33.45,65.10,46.50,33.44,9.932,
02/07/2025,12:17:18.23,0.49,152.83,995.12,-3.20,0.47,-0.98,-31.80,64.05,47.40,33.25,9.932,
02/07/2025,12:17:18.33,14.16,147.95,985.35,0.43,0.53,0.82,-31.50,65.70,46.35,33.35,9.932,
02/07/2025,12:17:18.43,2.44,148.93,992.19,-0.31,1.91,-2.58,-30.75,64.05,47.40,33.11,9.932,
02/07/2025,12:17:18.53,2.93,165.04,990.23,0.55,2.77,0.85,-31.20,63.60,46.50,33.11,9.932,
02/07/2025,12:17:18.63,0.0,164.55,988.77,-0.65,1.23,-1.56,-31.20,64.35,47.25,33.25,9.932,
02/07/2025,12:17:18.73,-1.46,148.44,990.23,0.05,0.14,1.21,-30.45,63.90,47.25,33.16,9.932,
02/07/2025,12:17:18.83,-6.84,151.86,985.35,-0.24,-0.11,0.01,-33.45,64.65,46.95,33.25,9.932,
02/07/2025,12:17:18.93,4.39,149.90,987.79,1.09,2.04,-0.89,-31.65,63.90,46.50,33.16,9.932,
02/07/2025,12:17:19.03,2.44,156.74,978.03,-0.69,0.54,-2.92,-33.0,66.0,46.05,33.30,9.932,
02/07/2025,12:17:19.13,4.88,142.58,992.19,-1.76,2.86,-1.53,-31.95,64.35,46.20,33.16,9.932,
02/07/2025,12:17:19.23,-6.84,147.95,978.52,0.62,0.79,1.61,-31.05,63.0,46.35,33.35,9.932,
02/07/2025,12:17:19.33,1.95,151.37,989.75,-1.71,3.56,-0.66,-31.95,63.90,47.25,33.25,9.932,
02/07/2025,12:17:19.43,7.81,143.55,991.70,0.40,3.16,-0.32,-31.05,64.95,45.30,33.16,9.932,
02/07/2025,12:17:19.53,3.91,148.44,990.23,-2.93,4.79,-3.33,-31.05,64.50,46.05,33.11,9.932,
02/07/2025,12:17:19.64,4.88,158.20,983.89,0.54,1.79,-0.93,-31.05,63.75,47.40,33.16,9.932,
02/07/2025,12:17:19.74,4.88,152.83,991.70,-0.77,4.44,-1.44,-31.95,64.65,47.25,33.11,9.932,
02/07/2025,12:17:19.84,-3.91,152.34,1000.98,0.56,3.11,2.85,-31.65,64.65,47.70,33.35,9.932,
02/07/2025,12:17:19.94,24.41,155.27,987.30,-1.69,2.79,-1.04,-33.0,64.50,45.60,33.35,9.932,
02/07/2025,12:17:20.04,-2.44,163.09,987.30,-0.52,1.54,-0.32,-31.95,65.10,45.75,32.97,9.932,
02/07/2025,12:17:20.14,4.39,158.69,988.77,-1.68,3.99,-0.53,-32.40,65.10,45.45,33.11,9.932,
02/07/2025,12:17:20.24,4.39,153.81,998.05,-0.31,0.77,-2.07,-32.55,65.70,45.30,33.16,9.932,
02/07/2025,12:17:20.34,2.44,135.74,991.70,-0.44,0.72,-0.79,-31.95,64.65,47.25,33.11,9.932,
02/07/2025,12:17:20.44,1.95,151.86,988.77,-0.13,1.97,0.44,-31.80,63.75,47.10,33.25,9.932,
02/07/2025,12:17:20.54,11.72,153.81,984.86,-0.54,2.14,-1.57,-32.25,65.70,46.35,33.11,9.932,
02/07/2025,12:17:20.64,0.0,144.53,990.23,-0.59,1.39,-2.48,-32.70,63.90,45.45,33.11,9.932,
02/07/2025,12:17:20.74,-5.86,145.51,979.49,-0.03,0.12,0.47,-31.20,65.85,45.75,33.11,9.932,
02/07/2025,12:17:20.84,1.95,149.41,987.79,-1.17,3.47,-2.01,-32.70,64.35,46.50,33.30,9.932,
02/07/2025,12:17:20.94,7.32,142.58,988.77,-0.69,1.22,-0.51,-32.55,64.95,47.10,33.30,9.932,
02/07/2025,12:17:21.05,-6.84,157.23,984.38,-2.62,2.88,-0.10,-31.65,64.35,47.70,33.11,9.932,
02/07/2025,12:17:21.15,5.86,162.11,985.35,0.18,1.63,2.33,-33.0,65.25,46.05,32.92,9.932,
02/07/2025,12:17:21.25,-3.42,151.37,984.38,-0.62,2.66,-0.66,-32.70,66.30,46.20,33.25,9.932,
02/07/2025,12:17:21.35,10.74,151.37,992.68,-1.04,0.82,-0.74,-31.05,64.05,46.80,33.30,9.932,
02/07/2025,12:17:21.45,2.44,161.62,996.58,-0.30,2.86,-0.83,-33.30,62.25,47.10,33.06,9.932,
02/07/2025,12:17:21.55,17.09,156.25,1007.32,1.69,0.17,-0.33,-32.25,64.05,47.10,33.16,9.932,
02/07/2025,12:17:21.65,-1.46,156.25,988.77,-0.22,1.62,-1.26,-31.65,64.65,47.70,33.06,9.932,
02/07/2025,12:17:21.75,14.16,142.09,992.19,-0.67,0.11,-1.60,-32.25,64.95,47.10,33.16,9.932,
02/07/2025,12:17:21.85,-3.91,147.95,994.63,-0.25,1.31,-1.60,-30.90,63.90,47.25,33.06,9.932,
02/07/2025,12:17:21.95,5.86,151.86,974.61,0.28,1.67,-1.64,-31.95,63.90,45.75,33.25,9.932,
02/07/2025,12:17:22.05,11.23,158.69,989.26,-1.08,2.92,0.02,-32.70,65.40,46.20,33.25,9.932,
02/07/2025,12:17:22.15,10.74,147.95,981.45,-1.26,1.55,1.56,-30.90,64.35,46.20,33.16,9.932,
02/07/2025,12:17:22.25,18.07,158.69,994.14,0.12,0.45,-1.54,-31.95,63.60,45.75,33.11,9.932,
02/07/2025,12:17:22.35,10.25,156.74,984.38,0.02,1.28,-1.48,-31.65,64.35,47.70,33.11,9.932,
02/07/2025,12:17:22.45,6.84,160.64,982.42,1.26,0.57,0.40,-29.55,64.95,45.30,33.11,9.932,
02/07/2025,12:17:22.56,17.58,151.86,987.30,-0.27,1.37,0.05,-32.55,64.50,47.10,32.97,9.932,
02/07/2025,12:17:22.66,2.44,149.41,979.49,2.52,1.56,-0.54,-31.95,64.65,45.75,33.25,9.932,
02/07/2025,12:17:22.76,7.81,142.09,985.35,-1.95,4.23,-0.02,-32.70,63.60,47.70,33.06,9.932,
02/07/2025,12:17:22.86,-1.95,143.07,988.77,1.45,-2.18,1.36,-31.65,65.10,46.20,32.97,9.932,
02/07/2025,12:17:22.96,1.46,152.34,993.16,-0.01,4.02,-1.25,-31.95,63.60,46.95,33.06,9.932,
02/07/2025,12:17:23.06,13.18,149.90,986.82,-1.33,2.28,0.82,-32.55,63.75,46.05,33.11,9.932,
02/07/2025,12:17:23.16,7.81,156.74,989.75,-1.50,2.81,-0.30,-32.40,65.10,46.50,33.11,9.932,
02/07/2025,12:17:23.26,-0.98,162.60,986.82,0.74,-0.19,2.14,-32.40,64.65,46.20,32.92,9.932,
02/07/2025,12:17:23.36,2.44,163.09,987.30,0.02,2.10,-4.64,-31.50,65.25,46.35,32.97,9.932,
02/07/2025,12:17:23.46,6.84,144.04,995.12,0.27,0.66,-1.47,-32.70,63.60,47.25,33.06,9.932,
02/07/2025,12:17:23.56,-0.49,152.34,990.23,-0.53,3.75,-0.92,-32.25,63.75,47.10,33.25,9.932,
02/07/2025,12:17:23.66,9.77,141.60,981.45,-0.88,0.81,3.15,-30.0,63.75,46.80,33.25,9.932,
02/07/2025,12:17:23.76,-8.30,147.95,974.61,-2.29,2.31,-0.95,-33.0,64.95,46.05,32.92,9.932,
02/07/2025,12:17:23.86,3.42,150.88,985.84,0.05,1.25,-0.85,-31.20,64.65,46.20,33.06,9.932,
02/07/2025,12:17:23.97,10.74,151.86,996.09,-0.07,2.62,-0.41,-31.65,65.10,46.20,33.11,9.932,
02/07/2025,12:17:24.07,10.74,152.34,997.07,1.87,-0.16,-0.21,-31.50,63.75,47.10,33.06,9.932,
02/07/2025,12:17:24.17,5.37,150.39,982.91,0.30,1.76,-3.40,-32.25,66.45,47.85,33.16,9.932,
02/07/2025,12:17:24.27,5.86,148.93,989.26,-1.27,2.58,-2.92,-31.95,63.90,45.75,33.25,9.932,
02/07/2025,12:17:24.37,1.46,156.25,988.28,-1.85,1.92,2.59,-31.95,64.35,46.95,32.92,9.932,
02/07/2025,12:17:24.47,4.88,146.97,983.89,-0.66,2.55,-0.56,-33.30,63.0,45.30,33.06,9.932,
02/07/2025,12:17:24.57,8.79,154.30,987.79,-0.01,1.98,-1.47,-32.40,65.85,45.15,32.97,9.932,
02/07/2025,12:17:24.67,7.81,152.34,984.86,-1.29,0.28,-0.54,-31.20,64.35,46.50,33.11,9.932,
02/07/2025,12:17:24.77,1.95,147.95,990.23,-2.46,2.73,-0.66,-32.25,64.95,47.10,33.11,9.932,
02/07/2025,12:17:24.87,0.0,149.90,979.49,-1.10,3.21,-1.51,-33.45,64.35,47.25,32.92,9.932,
02/07/2025,12:17:24.97,-1.95,154.79,984.86,-0.77,2.60,2.83,-30.0,64.05,45.30,33.11,9.932,
02/07/2025,12:17:25.07,-2.93,154.79,987.79,-0.66,3.86,-0.96,-31.80,64.05,46.05,33.11,9.932,
02/07/2025,12:17:25.17,3.42,145.02,990.72,0.21,1.78,-0.33,-32.25,64.05,46.05,32.97,9.932,
02/07/2025,12:17:25.27,7.81,134.77,983.89,-1.25,1.61,-1.46,-32.25,64.95,46.80,32.92,9.932,
02/07/2025,12:17:25.38,9.28,149.41,999.51,0.35,2.65,-1.84,-31.20,63.90,46.50,32.92,9.932,
