rtcDate,rtcTime,aX,aY,aZ,gX,gY,gZ,mX,mY,mZ,imu_degC,output_Hz,
02/07/2025,12:14:10.99,327.64,-943.85,-39.06,1.46,1.02,-2.61,-21.15,-4.35,31.95,33.59,0.0,
02/07/2025,12:14:11.09,340.82,-946.78,-54.20,3.13,2.76,-0.48,-21.30,-3.75,32.10,33.44,20.0,
02/07/2025,12:14:11.19,329.10,-937.01,-42.48,2.55,0.95,-1.50,-20.25,-4.95,32.40,33.35,15.0,
02/07/2025,12:14:11.29,347.66,-947.75,-47.85,-0.01,1.65,0.26,-22.20,-3.90,31.50,33.83,12.903,
02/07/2025,12:14:11.39,336.43,-944.82,-48.83,-1.56,-0.42,-1.42,-20.70,-3.15,32.70,33.64,12.195,
02/07/2025,12:14:11.49,342.77,-938.96,-49.80,0.63,1.83,-0.93,-21.30,-6.15,32.10,33.30,11.765,
02/07/2025,12:14:11.60,164.55,-998.05,163.09,-1.50,3.12,7.50,-21.90,-4.80,32.70,33.64,11.475,
02/07/2025,12:14:11.70,342.77,-948.73,-44.43,0.24,1.76,1.65,-21.0,-4.20,32.10,33.59,11.268,
02/07/2025,12:14:11.80,343.75,-942.38,-40.04,0.93,3.53,-0.97,-19.05,-3.75,32.10,33.25,11.111,
02/07/2025,12:14:11.90,315.92,-947.27,-29.30,0.18,1.93,3.56,-21.15,-5.10,33.0,33.68,10.989,
02/07/2025,12:14:12.00,322.27,-945.80,-42.48,0.79,0.48,-2.74,-20.25,-3.0,32.10,33.49,10.891,
02/07/2025,12:14:12.10,318.36,-954.10,-45.41,4.13,1.77,-1.34,-20.70,-3.60,32.25,33.25,10.811,
02/07/2025,12:14:12.20,313.48,-938.96,-48.83,1.50,9.21,-6.74,-21.75,-4.50,33.60,33.49,10.744,
02/07/2025,12:14:12.30,315.92,-901.86,-8.79,-2.29,25.02,-18.32,-21.15,-3.15,32.70,33.64,10.687,
02/07/2025,12:14:12.40,484.86,-791.99,32.71,44.04,36.20,-11.91,-21.15,-4.80,34.50,33.35,10.638,
02/07/2025,12:14:12.50,446.78,-865.72,122.56,55.21,66.66,-39.15,-21.75,-1.05,37.95,33.35,10.596,
02/07/2025,12:14:12.60,344.24,-723.14,299.32,72.75,118.94,-41.62,-19.80,3.75,42.75,33.35,10.559,
02/07/2025,12:14:12.70,448.73,-737.30,446.78,20.54,44.85,-75.73,-15.30,3.45,47.40,33.25,10.526,
02/07/2025,12:14:12.80,548.83,-639.65,649.90,62.67,26.81,-27.35,-15.15,7.35,48.75,33.16,10.440,
02/07/2025,12:14:12.90,509.77,-524.90,679.69,53.50,41.13,-2.81,-15.45,10.95,53.10,33.11,10.417,
02/07/2025,12:14:13.00,420.41,-546.88,641.11,15.06,49.69,-22.31,-12.45,14.40,54.15,33.16,10.396,
02/07/2025,12:14:13.10,513.67,-552.25,618.16,24.42,10.96,-10.72,-10.65,16.20,55.65,32.97,10.377,
02/07/2025,12:14:13.21,442.87,-466.31,805.18,47.56,31.95,-9.32,-10.50,18.45,55.80,33.06,10.360,
02/07/2025,12:14:13.31,294.92,-355.96,870.61,36.63,45.37,11.36,-6.30,22.65,56.25,33.11,10.345,
02/07/2025,12:14:13.41,165.04,-426.76,709.96,-2.22,102.85,-11.26,-0.30,25.35,55.20,32.73,10.331,
02/07/2025,12:14:13.51,-18.55,-302.25,973.63,45.38,34.23,-17.20,6.15,22.05,54.15,32.77,10.317,
02/07/2025,12:14:13.61,48.83,-298.83,992.19,12.76,45.55,-17.31,9.45,26.25,52.05,32.77,10.305,
02/07/2025,12:14:13.71,-19.53,-249.02,900.88,32.92,8.01,-11.78,10.05,26.10,52.95,32.73,10.294,
02/07/2025,12:14:13.81,6.35,-257.81,903.81,49.30,-16.32,-8.77,10.95,28.50,52.05,32.63,10.284,
02/07/2025,12:14:13.91,45.90,-104.49,843.75,-21.55,109.37,-1.31,10.20,30.90,54.15,32.73,10.274,
02/07/2025,12:14:14.01,-150.39,-149.90,1224.12,19.09,31.48,9.85,14.70,31.65,53.85,32.58,10.265,
02/07/2025,12:14:14.11,-75.68,-183.11,991.70,-8.24,50.37,-3.89,17.70,30.45,51.60,32.44,10.256,
02/07/2025,12:14:14.21,-250.98,-130.86,1031.25,12.95,31.32,3.63,19.65,33.15,49.80,32.39,10.248,
02/07/2025,12:14:14.31,-229.49,-153.81,1045.90,12.12,-12.15,6.88,19.50,33.30,49.95,32.63,10.241,
02/07/2025,12:14:14.41,-169.92,-112.79,990.72,4.08,2.34,4.79,19.65,33.90,51.60,32.73,10.204,
02/07/2025,12:14:14.51,-198.24,-132.81,999.51,6.53,1.19,-0.69,18.75,34.95,49.35,32.44,10.198,
02/07/2025,12:14:14.61,-211.43,-104.98,998.54,-5.44,15.98,1.55,18.15,33.60,49.80,32.73,10.193,
02/07/2025,12:14:14.71,-259.28,-116.21,1041.50,0.41,-1.70,11.92,19.50,36.0,47.85,32.73,10.188,
02/07/2025,12:14:14.82,-173.34,-93.75,903.81,3.68,8.73,-0.73,18.30,35.25,49.35,32.39,10.183,
02/07/2025,12:14:14.92,-211.43,-104.98,965.33,-4.35,10.27,-3.27,19.65,35.55,50.25,32.73,10.178,
02/07/2025,12:14:15.02,-184.57,-81.54,997.07,10.18,-9.61,-3.26,19.80,36.45,49.95,32.63,10.174,
02/07/2025,12:14:15.12,-171.39,-50.29,1001.95,22.70,-22.64,9.75,18.45,37.05,50.55,32.73,10.169,
02/07/2025,12:14:15.22,-157.71,-30.76,1087.40,31.13,-39.93,14.81,16.05,37.65,51.45,32.39,10.165,
02/07/2025,12:14:15.32,-80.08,-18.07,1011.23,19.44,-9.93,8.08,15.0,41.10,52.20,32.58,10.162,
02/07/2025,12:14:15.42,-83.98,84.47,963.38,50.13,35.16,8.19,13.65,43.50,49.80,32.73,10.158,
02/07/2025,12:14:15.52,-103.52,190.92,1013.18,19.11,48.95,-11.50,14.40,46.20,48.0,32.25,10.155,
02/07/2025,12:14:15.62,-160.16,191.41,960.45,-24.73,44.82,19.27,19.20,45.90,42.45,32.73,10.151,
02/07/2025,12:14:15.72,-359.38,61.52,903.32,-37.56,19.55,-30.41,22.05,44.85,41.55,32.63,10.148,
02/07/2025,12:14:15.82,-293.95,-64.45,921.88,-99.29,74.89,-15.24,22.65,39.75,41.10,32.44,10.145,
02/07/2025,12:14:15.92,-327.15,-228.52,1004.88,-66.0,-16.44,5.09,21.90,34.35,41.40,32.39,10.142,
02/07/2025,12:14:16.02,-305.66,-212.40,707.03,-76.19,9.32,24.66,21.75,33.30,40.20,32.39,10.119,
02/07/2025,12:14:16.12,-337.89,-333.50,809.08,-72.27,38.06,-26.13,23.40,29.70,39.30,32.53,10.117,
02/07/2025,12:14:16.22,-97.66,-305.18,722.17,-16.41,19.33,-18.51,25.05,26.40,35.40,32.25,10.115,
02/07/2025,12:14:16.32,-392.09,-441.89,865.72,26.03,-18.51,12.91,23.70,24.0,37.05,32.58,10.112,
02/07/2025,12:14:16.43,-281.74,-335.94,956.05,44.89,28.50,20.47,21.45,28.50,39.30,32.58,10.110,
02/07/2025,12:14:16.53,-366.21,-196.78,903.32,65.05,13.73,13.12,25.20,33.15,38.85,32.58,10.108,
02/07/2025,12:14:16.63,-420.90,-100.10,906.25,34.31,9.88,15.48,25.20,35.55,38.55,32.39,10.106,
02/07/2025,12:14:16.73,-426.76,-112.30,832.52,-9.83,9.71,12.05,25.65,37.80,39.60,32.53,10.105,
02/07/2025,12:14:16.83,-477.54,-53.71,944.82,43.24,2.85,8.44,27.15,39.0,40.35,32.44,10.103,
02/07/2025,12:14:16.93,-416.50,6.35,985.35,8.73,13.02,11.37,27.30,43.05,38.70,32.53,10.101,
02/07/2025,12:14:17.03,-452.64,0.49,910.16,-23.85,42.17,25.50,28.95,42.0,38.10,32.58,10.099,
02/07/2025,12:14:17.13,-544.43,-50.78,806.15,-7.50,52.88,1.01,29.40,42.45,35.55,32.73,10.098,
02/07/2025,12:14:17.23,-615.72,-25.88,780.27,-14.93,45.36,1.11,30.45,42.75,32.25,32.44,10.096,
02/07/2025,12:14:17.33,-685.06,-39.55,752.93,-0.55,34.52,-0.54,31.95,40.50,27.90,32.29,10.095,
02/07/2025,12:14:17.43,-680.66,-89.36,726.07,23.73,-9.41,-29.82,33.15,42.75,24.60,32.44,10.093,
02/07/2025,12:14:17.53,-679.69,-52.73,742.68,27.18,-5.18,-13.25,32.70,42.45,25.65,32.44,10.092,
02/07/2025,12:14:17.63,-647.46,-58.59,750.49,14.96,-0.16,-4.51,32.55,40.65,24.75,32.58,10.075,
02/07/2025,12:14:17.73,-613.77,27.83,745.12,-15.24,-15.94,47.72,31.95,41.25,25.35,32.29,10.074,
02/07/2025,12:14:17.83,-657.71,-4.88,775.39,-14.47,-6.77,7.51,32.55,41.10,27.30,32.73,10.073,
02/07/2025,12:14:17.94,-606.45,-198.73,733.89,-3.56,-8.37,6.11,30.90,40.80,29.40,32.53,10.072,
02/07/2025,12:14:18.04,-640.63,18.07,792.97,3.95,-2.79,-1.54,32.25,41.85,29.85,32.25,10.071,
02/07/2025,12:14:18.14,-648.44,0.0,803.22,3.94,2.46,2.92,33.90,41.70,31.50,32.53,10.070,
02/07/2025,12:14:18.24,-667.97,33.20,812.01,7.57,8.34,5.10,33.30,43.05,30.60,32.58,10.069,
02/07/2025,12:14:18.34,-704.59,-62.50,750.98,0.34,19.22,250.13,31.80,43.35,30.30,32.58,10.068,
02/07/2025,12:14:18.44,-651.37,14.16,776.86,10.07,-0.47,-1.66,33.0,44.10,28.80,32.25,10.067,
02/07/2025,12:14:18.54,-640.63,54.20,795.90,1.03,2.12,-7.53,33.0,42.15,30.30,32.39,10.066,
02/07/2025,12:14:18.64,-669.92,44.92,769.04,-4.66,2.22,9.92,31.95,42.45,30.75,32.73,10.065,
02/07/2025,12:14:18.74,-643.07,71.29,778.32,-22.77,6.99,11.39,33.75,43.35,29.55,32.58,10.065,
02/07/2025,12:14:18.84,-621.09,-22.46,744.63,-11.53,9.84,3.15,31.80,44.10,30.30,32.29,10.064,
02/07/2025,12:14:18.94,-718.75,138.18,714.36,-3.44,7.66,-14.54,32.55,45.30,28.50,32.63,10.063,
02/07/2025,12:14:19.04,-699.71,39.55,740.23,17.34,4.47,-17.37,33.30,44.10,27.75,32.58,10.062,
02/07/2025,12:14:19.14,-683.11,56.15,731.93,16.65,10.37,-25.25,33.45,43.50,27.60,32.63,10.049,
02/07/2025,12:14:19.24,-678.71,16.11,750.0,-5.44,-2.08,-14.94,32.55,43.35,25.50,32.29,10.048,
02/07/2025,12:14:19.34,-699.22,22.46,750.49,-2.86,6.24,-9.66,32.70,40.80,24.90,32.58,10.048,
02/07/2025,12:14:19.44,-684.57,-21.97,723.14,-19.26,0.60,-5.06,33.45,40.50,25.35,32.73,10.047,
02/07/2025,12:14:19.55,-690.43,-18.55,749.51,-23.86,4.26,-10.45,33.45,41.70,24.60,32.25,10.047,
02/07/2025,12:14:19.65,-679.20,-82.52,757.32,-18.07,-4.98,-2.48,32.55,38.70,25.50,32.58,10.046,
02/07/2025,12:14:19.75,-584.96,-287.11,750.49,-40.30,-9.15,-3.74,33.75,37.65,25.95,32.63,10.046,
02/07/2025,12:14:19.85,-701.66,-72.27,772.46,-16.68,15.05,18.42,34.05,38.40,24.75,32.77,10.045,
02/07/2025,12:14:19.95,-651.86,-94.24,634.77,-12.99,73.21,10.86,33.15,38.55,23.55,32.58,10.045,
02/07/2025,12:14:20.05,-781.25,-74.22,596.68,10.78,57.53,21.01,34.05,41.40,19.65,32.63,10.044,
02/07/2025,12:14:20.15,-872.56,-97.17,472.17,-12.05,28.60,-16.63,35.55,41.85,13.50,32.77,10.044,
02/07/2025,12:14:20.25,-885.25,-40.53,523.93,-16.98,-11.03,13.48,34.05,44.10,11.70,32.58,10.043,
02/07/2025,12:14:20.35,-640.14,50.78,639.65,-74.77,-45.44,39.15,32.70,45.90,12.60,32.82,10.043,
02/07/2025,12:14:20.45,-746.09,-47.85,586.43,-14.76,22.59,-54.29,32.25,49.20,11.70,32.77,10.042,
02/07/2025,12:14:20.55,-1012.21,-271.48,318.85,-41.62,-11.31,46.18,33.15,46.95,13.20,32.63,10.042,
02/07/2025,12:14:20.65,-1022.95,875.49,1033.20,-8.12,-142.95,91.65,31.65,46.95,17.25,32.39,10.041,
02/07/2025,12:14:20.75,-598.63,-89.36,829.10,-33.53,58.86,210.77,25.95,58.95,22.35,32.73,10.031,
02/07/2025,12:14:20.85,-802.73,349.12,595.21,-65.31,87.31,172.15,19.05,69.90,19.65,32.73,10.030,
02/07/2025,12:14:20.95,-667.97,407.71,550.29,-40.60,92.22,133.53,8.25,78.0,20.10,32.73,10.030,
02/07/2025,12:14:21.06,-592.77,654.30,311.52,-21.66,16.61,105.02,3.90,82.80,18.0,32.44,10.030,
02/07/2025,12:14:21.16,-672.85,757.32,659.67,-0.31,-127.82,23.18,-1.65,83.55,16.20,32.53,10.029,
02/07/2025,12:14:21.26,-751.95,855.47,852.54,-60.32,6.12,-10.36,-4.20,86.25,17.25,32.73,10.029,
02/07/2025,12:14:21.36,-289.06,541.02,724.12,-25.22,111.29,34.99,-1.95,82.35,22.35,32.77,10.029,
02/07/2025,12:14:21.46,-370.12,846.68,518.55,-43.06,86.91,43.13,-2.25,83.70,23.40,32.29,10.029,
02/07/2025,12:14:21.56,-276.86,623.54,579.59,6.31,24.15,20.05,-3.15,83.10,25.65,32.44,10.028,
02/07/2025,12:14:21.66,-329.10,728.03,557.13,-0.97,33.57,-17.07,-6.45,82.35,23.85,32.58,10.028,
02/07/2025,12:14:21.76,-564.94,765.63,456.54,-5.78,-9.81,-7.81,-6.15,83.85,26.85,32.73,10.028,
02/07/2025,12:14:21.86,-760.25,535.16,543.95,27.64,250.13,-16.54,-2.70,83.10,26.10,32.58,10.028,
02/07/2025,12:14:21.96,-1295.90,355.96,248.54,-93.12,210.19,36.74,4.05,81.0,20.40,32.63,10.027,
02/07/2025,12:14:22.06,-764.16,544.92,176.76,-83.77,-44.30,0.07,4.20,80.40,23.10,32.44,10.027,
02/07/2025,12:14:22.16,-604.49,550.78,235.35,-8.60,-42.31,-8.22,2.40,80.10,26.10,32.73,10.027,
02/07/2025,12:14:22.26,-964.36,460.94,396.97,-16.61,26.58,8.65,2.25,79.50,25.95,32.44,10.018,
02/07/2025,12:14:22.36,-825.20,586.91,31.74,-25.91,90.56,21.01,2.55,80.25,25.95,32.63,10.018,
02/07/2025,12:14:22.46,-812.50,580.08,21.48,-0.92,62.04,6.57,4.05,79.50,25.95,32.73,10.017,
02/07/2025,12:14:22.57,-727.54,521.97,-165.53,29.61,175.89,-30.73,4.65,80.40,20.25,32.58,10.017,
02/07/2025,12:14:22.67,-877.44,426.76,-273.44,-7.48,-8.44,-16.52,7.95,79.35,12.60,32.39,10.017,
02/07/2025,12:14:22.77,-979.00,523.93,-148.44,34.37,-151.37,-43.48,8.40,79.65,14.70,32.58,10.017,
02/07/2025,12:14:22.87,-905.27,429.69,-33.69,14.64,-54.56,-12.93,6.90,79.65,17.70,32.63,10.017,
02/07/2025,12:14:22.97,-837.89,539.06,55.66,16.76,-66.18,2.79,6.75,79.50,21.45,32.58,10.017,
02/07/2025,12:14:23.07,-844.73,511.23,210.45,-7.21,-76.35,-8.94,4.80,79.50,22.20,32.63,10.017,
02/07/2025,12:14:23.17,-652.83,514.65,518.07,4.23,-33.63,-7.85,1.50,81.45,24.75,32.73,10.016,
02/07/2025,12:14:23.27,-670.90,807.13,320.31,81.89,-200.05,-42.31,2.40,78.60,28.95,32.73,10.016,
02/07/2025,12:14:23.37,-18.07,602.05,56.15,3.43,-68.36,67.57,-1.50,79.95,29.55,32.73,10.016,
02/07/2025,12:14:23.47,-838.38,533.69,230.47,32.31,10.87,19.85,0.15,79.65,28.65,32.39,10.016,
02/07/2025,12:14:23.57,-740.72,537.60,529.30,-15.27,-26.92,-36.45,-1.20,80.85,30.15,32.73,10.016,
02/07/2025,12:14:23.67,-538.09,438.48,703.13,19.36,-64.27,10.53,-1.20,78.15,31.20,32.58,10.016,
02/07/2025,12:14:23.77,-594.73,472.66,655.27,17.90,4.28,0.11,-2.25,79.50,31.05,32.53,10.008,
02/07/2025,12:14:23.87,-584.96,640.14,697.27,-0.73,22.95,-29.38,-0.15,78.90,31.20,32.58,10.008,
02/07/2025,12:14:23.97,-611.33,415.04,676.76,-0.76,15.08,20.01,-0.30,79.95,30.60,32.82,10.008,
02/07/2025,12:14:24.07,-489.75,49.80,752.44,-6.21,-8.24,-2.30,-3.30,79.05,29.55,32.73,10.008,
02/07/2025,12:14:24.18,-582.52,488.28,675.29,4.98,-9.62,-12.05,-1.50,79.95,29.25,32.58,10.008,
02/07/2025,12:14:24.28,-642.09,463.38,650.39,13.63,-2.29,-14.33,-1.50,79.95,29.25,32.58,10.008,
02/07/2025,12:14:24.38,-632.81,437.99,639.65,-2.89,-2.22,4.03,-2.25,81.0,29.55,32.77,10.007,
02/07/2025,12:14:24.48,-640.63,421.39,665.53,-3.69,0.95,6.26,-1.95,78.90,29.40,32.73,10.007,
02/07/2025,12:14:24.58,-608.40,371.09,704.59,-12.76,12.42,6.11,0.30,80.25,30.30,32.39,10.007,
02/07/2025,12:14:24.68,-568.36,407.71,645.02,-16.60,-1.05,-8.71,0.30,78.75,30.30,32.44,10.007,
02/07/2025,12:14:24.78,-661.13,395.51,646.00,-6.98,-5.36,-2.94,1.20,76.95,33.75,32.77,10.007,
02/07/2025,12:14:24.88,-454.10,221.68,776.37,-16.81,6.79,-2.21,0.45,78.90,31.20,32.73,10.007,
02/07/2025,12:14:24.98,-608.40,415.04,585.94,-12.08,24.67,4.15,0.15,76.95,30.75,32.73,10.007,
02/07/2025,12:14:25.08,-607.91,454.10,582.03,-1.22,19.39,10.73,1.20,78.15,33.0,32.58,10.007,
02/07/2025,12:14:25.18,-696.29,498.54,585.94,2.42,2.31,38.61,-1.80,77.25,31.80,32.82,10.007,
02/07/2025,12:14:25.28,-516.60,314.45,536.13,-18.35,-12.66,-1.82,-2.70,78.90,31.20,32.58,10.0,
02/07/2025,12:14:25.38,-553.71,357.42,637.21,-1.18,-7.15,-7.49,-1.20,79.35,32.25,32.73,10.0,
02/07/2025,12:14:25.48,-561.04,626.95,818.36,23.18,16.63,-1.74,-0.15,78.90,30.45,32.58,10.0,
02/07/2025,12:14:25.58,-689.94,622.56,495.61,21.23,14.03,-9.74,1.20,81.15,29.40,32.58,10.0,
02/07/2025,12:14:25.69,-618.16,360.35,733.40,9.64,6.71,1.75,1.50,78.30,27.0,32.77,10.0,
02/07/2025,12:14:25.79,-725.59,472.17,643.55,15.41,8.41,-14.49,3.45,79.65,26.40,32.73,10.0,
02/07/2025,12:14:25.89,-708.01,458.01,605.47,-1.47,-5.20,16.33,2.25,80.25,26.25,32.82,10.0,
02/07/2025,12:14:25.99,-759.77,503.42,589.84,0.56,7.86,-6.79,2.55,79.50,25.95,32.39,10.0,
02/07/2025,12:14:26.09,-772.95,480.47,566.89,-9.65,0.56,13.46,4.50,79.50,26.25,32.82,10.0,
02/07/2025,12:14:26.19,-657.71,505.37,505.86,-7.84,-3.66,-0.79,3.45,79.65,24.90,32.73,10.0,
02/07/2025,12:14:26.29,-692.87,468.75,622.07,11.84,-17.12,-1.66,2.70,78.90,27.15,32.58,10.0,
02/07/2025,12:14:26.39,-671.88,413.09,556.15,-7.92,-0.10,-5.44,3.45,79.65,24.0,32.58,10.0,
02/07/2025,12:14:26.49,-497.56,630.86,661.13,28.18,-24.56,15.05,2.25,80.70,25.95,32.44,10.0,
02/07/2025,12:14:26.59,-586.91,446.78,498.54,-0.98,-23.56,7.69,2.25,81.45,25.95,32.77,10.0,
02/07/2025,12:14:26.69,-507.81,284.67,751.95,-42.48,-0.66,25.66,1.50,82.50,28.80,32.63,10.0,
02/07/2025,12:14:26.79,-524.41,430.18,821.29,-6.44,-4.04,2.08,0.30,78.30,29.25,32.73,9.994,
02/07/2025,12:14:26.89,-581.54,385.25,565.43,-10.67,9.65,17.09,1.95,80.10,30.75,32.58,9.994,
02/07/2025,12:14:26.99,-711.91,438.48,580.57,-15.02,-11.63,-10.13,1.80,79.95,29.85,32.58,9.994,
02/07/2025,12:14:27.09,-638.67,367.68,809.57,-20.53,-14.92,-22.34,1.95,78.15,29.40,32.92,9.994,
02/07/2025,12:14:27.20,-652.34,355.96,754.39,-40.81,-47.15,-66.66,3.30,74.55,34.65,32.58,9.994,
02/07/2025,12:14:27.30,-625.0,396.48,656.25,-32.33,-24.79,-3.01,3.45,72.75,37.80,32.58,9.994,
02/07/2025,12:14:27.40,-604.49,299.32,757.32,-24.87,14.42,13.24,1.95,71.25,39.30,32.63,9.994,
02/07/2025,12:14:27.50,-495.61,181.64,780.76,11.57,-36.35,5.15,2.70,71.25,39.90,32.92,9.994,
02/07/2025,12:14:27.60,-470.21,246.58,832.52,-11.28,-17.52,-8.34,1.80,69.90,42.0,32.73,9.994,
02/07/2025,12:14:27.70,-463.38,220.70,826.17,-39.0,-24.62,-28.52,-0.30,69.15,44.85,32.39,9.994,
02/07/2025,12:14:27.80,-407.71,-31.25,955.57,-50.86,-22.22,-51.25,0.45,68.10,46.95,32.97,9.994,
02/07/2025,12:14:27.90,-348.63,-151.86,939.94,-50.81,-29.43,-29.70,3.75,60.60,47.10,32.77,9.994,
02/07/2025,12:14:28.00,-553.22,-85.45,800.78,-34.98,16.63,44.12,4.65,58.50,49.50,32.73,9.994,
02/07/2025,12:14:28.10,-496.58,29.79,1022.46,92.19,72.52,-34.91,4.80,61.05,46.05,32.82,9.994,
02/07/2025,12:14:28.20,-604.49,43.95,775.39,20.88,20.08,2.31,7.50,66.45,39.75,32.73,9.994,
02/07/2025,12:14:28.30,-635.25,149.90,749.51,40.90,23.27,11.39,6.0,68.70,35.70,32.63,9.988,
02/07/2025,12:14:28.40,-635.74,163.09,805.66,25.96,6.11,17.61,6.75,71.40,29.85,32.73,9.989,
02/07/2025,12:14:28.50,-667.48,172.85,638.67,41.84,31.29,14.34,6.75,74.85,27.75,32.77,9.989,
02/07/2025,12:14:28.61,-623.05,293.95,710.45,14.73,7.41,11.21,7.05,75.60,25.20,32.58,9.989,
02/07/2025,12:14:28.71,-600.10,250.0,773.93,-31.25,-46.40,2.54,7.05,76.80,29.25,32.58,9.989,
02/07/2025,12:14:28.81,-564.45,235.84,763.18,-23.04,-9.44,3.71,6.15,74.25,32.70,32.63,9.989,
02/07/2025,12:14:28.91,-537.60,192.38,818.36,-56.76,-2.0,-5.79,5.70,72.75,36.0,32.63,9.989,
02/07/2025,12:14:29.01,-620.61,175.29,822.27,24.30,26.08,0.83,4.80,70.65,37.65,32.73,9.989,
02/07/2025,12:14:29.11,-591.31,240.72,798.83,36.76,17.49,-0.77,7.20,74.70,32.70,32.73,9.989,
02/07/2025,12:14:29.21,-582.03,196.78,722.17,0.44,-9.11,-18.65,6.30,72.60,33.90,32.73,9.989,
02/07/2025,12:14:29.31,-673.34,263.18,779.79,59.08,13.86,14.54,6.0,73.80,34.65,32.73,9.989,
02/07/2025,12:14:29.41,-528.81,318.85,827.15,49.84,4.81,-59.16,5.70,76.20,27.90,32.77,9.989,
02/07/2025,12:14:29.51,-694.82,378.42,680.18,75.46,34.18,11.40,6.0,77.55,25.50,32.44,9.989,
02/07/2025,12:14:29.61,-660.64,387.70,560.55,92.34,74.15,-22.44,7.50,80.25,17.85,32.73,9.989,
02/07/2025,12:14:29.71,-711.91,521.00,437.01,22.80,48.93,10.50,6.90,81.15,11.40,32.73,9.989,
02/07/2025,12:14:29.81,-629.88,562.99,314.45,24.58,23.53,34.40,4.95,83.10,7.80,32.77,9.984,
02/07/2025,12:14:29.91,-646.00,639.65,321.78,29.20,15.07,21.24,3.90,83.85,4.50,32.39,9.984,
02/07/2025,12:14:30.01,-758.79,727.05,329.59,26.27,21.55,4.82,2.40,83.10,1.50,32.77,9.984,
02/07/2025,12:14:30.11,-692.38,673.83,232.42,-5.41,16.56,-2.85,2.25,84.15,-1.05,32.92,9.984,
02/07/2025,12:14:30.22,-652.34,706.54,282.23,0.56,19.34,-20.19,3.0,83.70,-1.05,32.77,9.984,
02/07/2025,12:14:30.32,-709.47,650.39,210.94,-15.26,16.11,-3.49,1.20,84.75,0.15,32.77,9.984,
02/07/2025,12:14:30.42,-698.24,677.73,245.12,-12.95,31.23,-15.48,1.95,83.85,-1.50,32.63,9.985,
02/07/2025,12:14:30.52,-749.02,651.37,251.46,-7.15,15.47,4.77,2.55,82.50,1.80,32.58,9.985,
02/07/2025,12:14:30.62,-702.15,594.24,239.26,-17.39,9.09,6.13,2.55,84.15,1.35,32.73,9.985,
02/07/2025,12:14:30.72,-705.08,629.39,220.21,-13.68,20.21,-11.66,1.95,85.05,1.50,32.92,9.985,
02/07/2025,12:14:30.82,-774.41,601.07,226.07,-0.03,8.73,-6.73,3.90,85.05,1.50,32.58,9.985,
02/07/2025,12:14:30.92,-746.58,602.54,209.96,-0.11,13.58,0.08,3.15,84.75,1.50,32.58,9.985,
02/07/2025,12:14:31.02,-784.67,564.45,173.34,-5.86,17.47,-4.54,3.90,85.05,2.70,32.82,9.985,
02/07/2025,12:14:31.12,-758.79,557.62,210.94,-6.24,3.21,-2.85,4.95,82.80,3.0,32.73,9.985,
02/07/2025,12:14:31.22,-787.11,552.73,201.17,-13.13,3.95,-10.43,4.80,84.45,3.60,32.82,9.985,
02/07/2025,12:14:31.32,-806.64,554.20,228.52,-7.81,10.24,-12.79,5.55,83.70,5.10,32.39,9.980,
02/07/2025,12:14:31.42,-896.97,585.94,225.10,22.94,-2.60,-7.11,6.15,82.05,3.0,32.92,9.980,
02/07/2025,12:14:31.52,-839.36,584.96,188.96,-10.22,-2.27,-2.82,4.95,84.30,-1.20,32.92,9.981,
02/07/2025,12:14:31.63,-812.50,557.13,216.31,-13.63,11.34,0.20,6.30,82.50,1.05,32.77,9.981,
02/07/2025,12:14:31.73,-874.02,548.83,243.16,-12.34,9.48,3.83,8.25,82.95,1.05,32.63,9.981,
02/07/2025,12:14:31.83,-856.45,575.20,248.54,-25.44,-0.29,-6.31,7.80,82.50,2.85,32.92,9.981,
02/07/2025,12:14:31.93,-850.59,530.27,285.16,-44.61,-21.70,-10.77,7.20,83.10,7.35,32.92,9.981,
02/07/2025,12:14:32.03,-806.15,455.08,304.69,-11.26,-4.62,1.72,7.20,82.05,11.85,32.92,9.981,
02/07/2025,12:14:32.13,-807.62,552.73,343.75,-0.02,-21.58,-7.60,5.70,83.55,11.85,32.77,9.981,
02/07/2025,12:14:32.23,-745.12,522.95,369.63,-70.98,-44.28,-9.39,7.20,80.85,16.95,32.63,9.981,
02/07/2025,12:14:32.33,-740.23,449.22,467.77,10.64,2.19,-0.54,6.45,82.80,21.75,32.82,9.981,
02/07/2025,12:14:32.43,-726.56,487.30,421.88,24.24,10.21,2.54,8.25,84.45,18.60,32.77,9.981,
02/07/2025,12:14:32.53,-759.77,503.91,508.30,-38.10,-21.56,4.34,6.90,80.10,19.05,32.73,9.981,
02/07/2025,12:14:32.63,-731.45,348.14,448.24,-45.37,-14.54,-21.02,7.05,78.75,25.50,32.63,9.982,
02/07/2025,12:14:32.73,-664.55,482.91,430.18,41.63,-24.28,-0.08,7.50,79.05,22.95,32.58,9.982,
02/07/2025,12:14:32.83,-676.27,399.90,634.77,74.83,19.24,17.93,5.40,81.60,17.25,32.58,9.977,
02/07/2025,12:14:32.93,-803.22,465.82,474.61,-12.15,-13.55,20.09,4.65,81.15,14.70,32.82,9.977,
02/07/2025,12:14:33.03,-631.35,523.93,446.78,33.11,-8.03,-7.65,3.45,82.35,17.25,32.73,9.977,
02/07/2025,12:14:33.14,-650.39,687.01,382.32,-64.36,-27.56,6.50,3.45,81.15,16.95,32.58,9.977,
02/07/2025,12:14:33.24,-611.33,526.37,592.29,31.53,-25.40,6.96,3.15,83.85,19.50,32.73,9.978,
02/07/2025,12:14:33.34,-448.73,627.44,503.91,-15.01,-4.64,-4.25,1.80,82.20,20.70,32.77,9.978,
02/07/2025,12:14:33.44,-639.16,510.25,539.55,14.84,8.08,46.95,0.90,82.35,18.45,32.73,9.978,
02/07/2025,12:14:33.54,-548.34,521.97,547.85,-35.54,-38.86,-6.28,-0.45,83.85,21.0,32.73,9.978,
02/07/2025,12:14:33.64,-569.82,569.82,593.75,0.45,-24.53,4.88,-1.05,83.40,22.80,32.58,9.978,
02/07/2025,12:14:33.74,-482.91,584.47,687.01,0.32,-3.51,3.49,-3.15,83.10,21.75,32.73,9.978,
02/07/2025,12:14:33.84,-544.43,559.57,661.13,-8.66,-6.65,-7.57,-2.70,80.85,25.65,33.06,9.978,
02/07/2025,12:14:33.94,-490.23,589.84,739.26,-12.34,3.94,4.60,-3.75,82.20,24.45,32.77,9.978,
02/07/2025,12:14:34.04,-425.29,533.20,728.03,-7.40,12.98,3.62,-2.25,81.45,24.75,32.82,9.978,
02/07/2025,12:14:34.14,-450.20,778.81,545.41,0.52,24.47,-8.99,-1.80,80.70,26.25,32.63,9.978,
02/07/2025,12:14:34.24,-529.79,497.07,651.86,-2.51,26.53,-8.97,-1.95,82.35,24.60,32.92,9.974,
02/07/2025,12:14:34.34,-582.52,531.25,598.63,5.37,2.71,-6.37,-0.75,81.45,24.0,33.06,9.974,
02/07/2025,12:14:34.44,-544.43,490.72,625.98,3.41,-1.06,0.83,-0.15,82.35,23.85,32.92,9.974,
02/07/2025,12:14:34.54,-545.41,572.27,523.93,-15.13,17.95,-0.14,-0.75,80.70,24.0,32.82,9.975,
02/07/2025,12:14:34.65,-585.45,503.91,675.78,4.92,1.26,-1.12,-0.45,81.60,23.10,32.39,9.975,
02/07/2025,12:14:34.75,-566.41,499.02,606.93,4.84,4.16,3.24,-0.30,80.70,23.40,32.58,9.975,
02/07/2025,12:14:34.85,-608.40,547.36,696.78,10.68,9.13,-7.50,0.0,82.50,23.70,32.73,9.975,
02/07/2025,12:14:34.95,-628.42,510.25,612.30,1.58,29.79,-6.56,1.05,81.45,20.70,32.63,9.975,
02/07/2025,12:14:35.05,-683.59,527.83,563.48,-20.96,36.25,-26.18,1.50,81.45,21.90,32.73,9.975,
02/07/2025,12:14:35.15,-580.08,520.51,760.25,2.80,3.92,-28.47,4.65,78.90,22.05,32.73,9.975,
02/07/2025,12:14:35.25,-636.23,423.83,514.65,12.29,20.92,-39.95,4.05,81.0,19.35,32.82,9.975,
02/07/2025,12:14:35.35,-715.33,450.20,469.24,-5.12,19.40,-12.82,4.20,81.15,18.0,32.77,9.975,
02/07/2025,12:14:35.45,-699.71,386.72,447.75,-28.14,-6.10,3.98,7.20,78.60,15.90,32.58,9.975,
02/07/2025,12:14:35.55,-749.51,396.00,561.04,-8.35,17.52,-0.79,7.50,79.05,17.85,32.58,9.976,
02/07/2025,12:14:35.65,-812.99,369.14,502.44,45.66,20.53,-4.77,7.50,80.25,13.80,32.73,9.976,
02/07/2025,12:14:35.75,-835.45,441.89,501.46,20.98,10.63,-3.96,9.0,81.0,8.40,32.73,9.972,
02/07/2025,12:14:35.85,-806.64,425.78,412.11,11.57,8.90,4.14,6.90,80.10,8.10,32.92,9.972,
02/07/2025,12:14:35.95,-735.84,456.05,452.15,-38.24,-19.34,-13.21,10.20,79.65,9.60,32.77,9.972,
02/07/2025,12:14:36.05,-852.05,144.04,402.83,-100.95,-42.98,-31.90,9.90,76.65,19.80,32.82,9.972,
02/07/2025,12:14:36.16,-731.45,188.96,517.58,-153.92,15.72,50.95,12.75,70.20,32.40,32.53,9.972,
02/07/2025,12:14:36.26,-643.07,132.81,663.57,67.85,-6.29,-22.64,9.45,65.85,39.30,32.92,9.972,
02/07/2025,12:14:36.36,-712.89,98.63,601.56,66.26,-22.73,5.20,11.40,70.50,32.25,32.97,9.972,
02/07/2025,12:14:36.46,-797.36,291.50,674.32,92.21,26.12,18.45,12.45,74.25,24.90,33.06,9.973,
02/07/2025,12:14:36.56,-779.79,339.84,506.84,55.20,53.79,22.07,10.95,76.95,16.95,32.97,9.973,
02/07/2025,12:14:36.66,-786.62,419.43,442.87,71.20,63.01,22.29,10.05,80.70,6.90,32.53,9.973,
02/07/2025,12:14:36.76,-724.12,443.85,312.01,10.37,11.67,0.11,9.75,82.50,1.80,32.97,9.973,
02/07/2025,12:14:36.86,-792.97,412.11,283.69,-11.63,8.95,20.0,8.40,80.40,1.95,32.77,9.973,
02/07/2025,12:14:36.96,-812.50,464.84,254.39,25.06,17.21,-24.75,8.55,81.0,1.80,32.92,9.973,
02/07/2025,12:14:37.06,-844.73,487.79,257.81,28.59,26.45,-2.30,9.30,79.95,-0.60,33.06,9.973,
02/07/2025,12:14:37.16,-808.11,475.59,186.52,1.66,8.10,-0.68,9.0,80.25,-2.55,32.63,9.973,
02/07/2025,12:14:37.26,-795.90,493.65,195.31,6.13,0.87,1.08,8.70,80.85,-2.25,32.82,9.970,
02/07/2025,12:14:37.36,-830.08,511.72,229.00,0.76,0.21,-2.27,7.95,80.40,-1.95,32.77,9.970,
02/07/2025,12:14:37.46,-821.78,496.09,193.36,-6.78,-4.63,6.39,7.05,80.70,-3.15,32.77,9.970,
02/07/2025,12:14:37.57,-839.36,576.17,190.43,-17.40,-4.59,2.81,7.05,79.95,-3.90,32.92,9.970,
02/07/2025,12:14:37.67,-784.18,523.44,208.01,-9.94,0.72,-1.37,7.05,82.20,-3.15,32.58,9.970,
02/07/2025,12:14:37.77,-789.06,563.96,209.96,-24.84,-15.47,1.29,6.75,81.75,-2.55,32.82,9.970,
02/07/2025,12:14:37.87,-849.61,553.71,315.92,-21.98,-35.88,5.85,7.20,81.15,-1.50,32.77,9.970,
02/07/2025,12:14:37.97,-776.37,526.86,322.75,-30.14,-5.12,-15.62,7.65,83.10,1.50,32.92,9.970,
02/07/2025,12:14:38.07,-743.65,513.67,367.68,-17.24,-1.24,-8.88,7.20,82.35,1.20,32.82,9.970,
02/07/2025,12:14:38.17,-799.80,479.98,332.52,-13.28,-10.44,-13.38,8.40,82.80,2.70,32.73,9.971,
02/07/2025,12:14:38.27,-759.77,452.64,342.29,5.06,4.54,3.97,7.50,80.25,5.10,32.73,9.971,
02/07/2025,12:14:38.37,-799.32,431.15,396.97,9.37,-14.27,1.21,8.40,82.05,3.45,32.77,9.971,
02/07/2025,12:14:38.47,-812.99,515.14,354.00,13.45,-12.60,1.39,7.65,82.80,3.0,32.73,9.971,
02/07/2025,12:14:38.57,-762.70,486.82,335.94,30.59,4.73,5.29,7.20,82.05,1.50,33.06,9.971,
02/07/2025,12:14:38.67,-773.93,521.00,359.86,9.05,-4.96,-10.85,7.20,82.35,0.90,32.77,9.967,
02/07/2025,12:14:38.77,-774.90,476.56,442.38,-81.34,-22.34,-21.13,8.25,81.45,6.45,32.63,9.968,
02/07/2025,12:14:38.87,-922.36,271.00,266.60,-25.38,-0.14,-18.14,9.15,81.15,7.05,32.73,9.968,
02/07/2025,12:14:38.98,-810.55,476.07,395.02,20.73,23.72,8.40,9.0,80.25,5.40,32.77,9.968,
02/07/2025,12:14:39.08,-802.25,487.79,379.88,18.05,31.31,34.51,8.70,80.85,1.95,32.77,9.968,
02/07/2025,12:14:39.18,-759.28,435.06,342.29,-5.63,-4.09,7.26,7.50,81.45,1.35,32.82,9.968,
02/07/2025,12:14:39.28,-783.69,504.39,335.94,3.92,6.01,6.44,6.75,80.70,2.55,32.82,9.968,
02/07/2025,12:14:39.38,-729.49,521.97,327.15,-1.52,4.94,-0.53,6.30,81.45,1.35,32.77,9.968,
02/07/2025,12:14:39.48,-768.55,470.21,346.19,-3.80,-1.77,-5.50,6.45,82.80,2.70,32.97,9.968,
02/07/2025,12:14:39.58,-806.15,538.09,354.49,10.49,0.61,-7.94,7.80,82.20,3.15,32.92,9.969,
02/07/2025,12:14:39.68,-805.18,465.82,349.61,-7.0,-11.02,-23.92,8.55,83.40,3.15,32.92,9.969,
02/07/2025,12:14:39.78,-823.73,446.29,349.61,13.24,9.28,-24.37,10.65,80.10,3.45,32.82,9.969,
02/07/2025,12:14:39.88,-776.37,428.22,360.35,-2.87,1.71,-16.34,10.95,80.10,1.20,33.06,9.969,
02/07/2025,12:14:39.98,-819.34,411.62,336.91,-9.76,-8.93,-3.89,12.15,79.65,1.50,32.92,9.969,
02/07/2025,12:14:40.08,-861.33,426.76,387.21,-6.05,-1.82,6.49,12.15,79.35,3.45,32.92,9.966,
02/07/2025,12:14:40.18,-773.93,408.69,369.14,-8.87,-2.94,-4.94,12.30,79.95,5.10,33.06,9.966,
02/07/2025,12:14:40.28,-838.38,463.38,413.09,1.94,-10.08,-6.21,13.20,76.65,5.25,33.06,9.966,
02/07/2025,12:14:40.38,-797.85,375.49,387.70,-16.06,-1.05,3.05,11.70,78.90,8.10,32.92,9.966,
02/07/2025,12:14:40.49,-653.32,457.52,514.65,19.66,22.64,15.31,10.65,78.90,9.30,32.97,9.966,
02/07/2025,12:14:40.59,-641.11,368.16,283.20,10.69,-17.27,-36.05,6.90,80.10,8.55,32.77,9.966,
02/07/2025,12:14:40.69,-690.92,511.23,410.64,-0.92,-25.15,32.88,6.45,80.40,9.30,32.92,9.966,
02/07/2025,12:14:40.79,-605.96,487.79,474.61,-0.21,-28.38,7.28,6.15,81.60,11.40,32.92,9.966,
02/07/2025,12:14:40.89,-700.68,378.42,582.52,14.11,-12.70,57.07,6.30,81.45,12.0,32.73,9.967,
02/07/2025,12:14:40.99,-676.76,601.07,435.55,7.40,29.17,7.90,4.50,81.0,14.85,32.97,9.967,
02/07/2025,12:14:41.09,-671.39,575.20,471.68,-9.66,18.21,-0.53,4.95,81.60,12.15,32.44,9.967,
02/07/2025,12:14:41.19,-657.71,566.89,440.43,-6.90,16.02,5.46,3.90,81.15,15.15,32.82,9.967,
02/07/2025,12:14:41.29,-682.62,562.01,439.94,-0.20,5.89,-0.05,3.45,81.60,13.65,33.06,9.967,
02/07/2025,12:14:41.39,-758.30,632.32,491.70,-4.37,14.43,18.59,4.80,81.0,13.50,32.77,9.967,
02/07/2025,12:14:41.49,-655.27,556.64,494.63,-3.59,-6.86,-5.53,4.05,82.95,14.55,32.92,9.967,
02/07/2025,12:14:41.59,-666.50,558.11,471.68,-4.03,-8.76,-5.63,3.90,80.85,15.45,32.92,9.964,
02/07/2025,12:14:41.69,-643.55,539.55,514.16,-2.20,-8.08,-10.34,4.65,82.80,15.15,32.63,9.964,
02/07/2025,12:14:41.79,-678.22,574.22,477.54,1.02,-11.01,-7.57,7.05,81.75,14.85,32.92,9.964,
02/07/2025,12:14:41.90,-651.86,529.30,557.62,-2.40,-14.76,-10.85,5.70,81.60,15.90,32.77,9.964,
02/07/2025,12:14:42.00,-684.08,536.13,519.04,8.40,-47.31,-39.24,6.30,80.25,17.10,32.77,9.965,
02/07/2025,12:14:42.10,-612.30,545.90,577.15,34.73,-57.38,-23.98,8.40,80.10,15.90,32.97,9.965,
02/07/2025,12:14:42.20,-630.37,559.08,664.06,14.02,-17.40,-10.54,7.80,80.70,13.05,32.73,9.965,
02/07/2025,12:14:42.30,-681.15,548.34,520.02,30.16,-34.86,-8.12,7.95,80.85,13.95,32.73,9.965,
02/07/2025,12:14:42.40,-181.64,314.94,517.09,-1.27,-21.85,-27.72,7.50,81.45,10.50,32.92,9.965,
02/07/2025,12:14:42.50,-507.81,746.09,628.42,44.92,1.61,-21.40,7.20,81.15,11.10,32.97,9.965,
02/07/2025,12:14:42.60,-653.32,520.02,535.16,-5.74,-32.18,-9.91,10.05,80.70,9.45,32.92,9.965,
02/07/2025,12:14:42.70,-563.48,565.92,697.75,24.34,-47.0,-8.69,9.30,79.05,10.50,33.06,9.965,
02/07/2025,12:14:42.80,-460.45,633.79,572.27,42.11,-57.37,6.82,9.30,78.30,9.75,32.97,9.965,
02/07/2025,12:14:42.90,-458.01,665.04,638.67,6.85,-42.65,-0.56,9.45,80.10,11.10,32.82,9.966,
02/07/2025,12:14:43.00,-430.66,640.63,680.66,15.65,-28.13,4.44,6.45,80.10,13.20,32.82,9.963,
02/07/2025,12:14:43.10,-323.24,648.44,691.89,-0.40,-25.87,-5.25,7.50,79.05,14.85,32.82,9.963,
02/07/2025,12:14:43.20,-315.43,613.77,711.91,-10.63,-16.95,-1.65,7.50,79.50,16.05,33.06,9.963,
02/07/2025,12:14:43.31,-282.23,619.63,728.52,-1.42,-0.83,-4.62,6.30,79.95,15.30,32.73,9.963,
02/07/2025,12:14:43.41,-302.25,575.68,736.82,3.53,3.46,0.90,7.50,79.95,16.05,32.63,9.963,
02/07/2025,12:14:43.51,-213.38,574.71,786.13,-12.82,-0.18,0.44,7.20,80.85,17.70,32.92,9.963,
02/07/2025,12:14:43.61,-323.24,579.59,833.98,6.53,-5.08,4.71,6.90,80.10,17.70,32.92,9.963,
02/07/2025,12:14:43.71,-317.38,636.72,736.82,4.70,2.75,-5.14,7.05,80.25,17.85,32.92,9.963,
02/07/2025,12:14:43.81,-308.11,545.90,701.17,10.70,9.41,-9.92,6.90,80.85,14.70,32.82,9.963,
02/07/2025,12:14:43.91,-290.53,640.63,658.20,-1.92,3.21,-4.69,10.05,81.0,16.05,32.92,9.964,
02/07/2025,12:14:44.01,-296.88,617.68,673.83,-12.82,-0.02,11.31,10.80,80.70,15.30,32.73,9.964,
02/07/2025,12:14:44.11,-277.34,640.14,747.07,5.33,1.61,-2.76,9.45,80.85,15.90,32.92,9.964,
02/07/2025,12:14:44.21,-278.81,610.35,683.11,-9.50,-2.47,5.79,9.75,80.70,14.55,33.11,9.964,
02/07/2025,12:14:44.31,-328.13,570.80,695.80,-5.76,-3.48,9.88,8.25,80.25,15.60,33.11,9.964,
02/07/2025,12:14:44.41,-254.39,659.18,801.27,26.44,9.44,71.13,9.15,81.60,13.20,32.97,9.961,
02/07/2025,12:14:44.51,-239.75,638.18,772.95,1.92,3.47,-7.92,7.80,80.70,13.50,32.73,9.961,
02/07/2025,12:14:44.61,-285.16,637.70,661.13,-10.25,6.37,-18.24,7.20,81.15,13.20,32.92,9.961,
02/07/2025,12:14:44.71,-404.30,643.07,650.88,37.25,14.34,2.05,9.45,81.60,14.40,32.92,9.961,
02/07/2025,12:14:44.82,-403.32,574.71,455.57,-27.76,45.98,25.33,10.95,79.35,15.45,33.06,9.962,
02/07/2025,12:14:44.92,-500.49,671.88,689.45,-22.93,63.33,7.98,11.55,79.95,17.55,33.06,9.962,
02/07/2025,12:14:45.02,-480.96,552.25,637.70,-16.27,60.02,-3.30,13.65,77.70,14.70,33.06,9.962,
02/07/2025,12:14:45.12,-486.33,557.62,682.62,-12.81,58.70,-10.82,13.50,79.05,13.50,32.77,9.962,
02/07/2025,12:14:45.22,-604.98,517.58,537.60,-4.81,48.27,-10.71,13.20,78.90,10.65,32.97,9.962,
02/07/2025,12:14:45.32,-704.59,562.50,578.61,-0.27,29.92,3.98,14.40,77.70,8.10,32.97,9.962,
02/07/2025,12:14:45.42,-672.36,506.84,473.63,-9.37,19.40,9.44,15.15,78.90,8.10,32.97,9.962,
02/07/2025,12:14:45.52,-699.22,505.86,497.56,-8.53,4.40,-3.82,16.80,78.30,7.20,33.06,9.962,
02/07/2025,12:14:45.62,-674.80,510.25,544.43,7.60,-1.27,-3.89,14.55,78.0,7.95,33.11,9.962,
02/07/2025,12:14:45.72,-701.17,483.89,489.26,3.38,-6.11,-22.61,14.55,80.25,4.65,32.97,9.963,
02/07/2025,12:14:45.82,-685.06,470.70,442.38,-10.89,-5.99,-10.14,15.90,78.90,5.25,33.16,9.960,
02/07/2025,12:14:45.92,-669.92,461.43,535.16,-2.90,-6.50,-5.61,14.25,79.05,5.10,32.73,9.960,
02/07/2025,12:14:46.02,-625.0,510.25,638.67,6.91,-2.16,11.22,15.15,80.40,3.75,32.97,9.960,
02/07/2025,12:14:46.13,-636.23,528.81,565.43,5.80,-6.88,-8.62,13.95,82.05,3.45,32.82,9.960,
02/07/2025,12:14:46.23,-676.76,453.13,479.49,-7.81,-8.05,-16.52,14.40,79.65,3.75,33.06,9.960,
02/07/2025,12:14:46.33,-679.20,569.34,729.49,8.19,15.32,-5.37,14.70,80.40,2.70,32.82,9.960,
02/07/2025,12:14:46.43,-734.86,529.79,668.46,-1.68,-4.91,-0.69,14.55,78.75,5.10,32.92,9.960,
02/07/2025,12:14:46.53,-655.76,537.60,587.89,-3.35,-5.49,5.51,15.15,78.90,5.55,32.92,9.961,
02/07/2025,12:14:46.63,-680.66,571.78,599.61,-52.31,-25.55,2.38,15.90,77.40,9.30,32.82,9.961,
02/07/2025,12:14:46.73,-555.66,501.95,640.14,-6.51,10.46,7.15,15.0,76.80,14.25,32.92,9.961,
02/07/2025,12:14:46.83,-593.26,456.05,688.48,-19.44,-8.11,-4.38,14.25,76.80,15.30,32.92,9.961,
02/07/2025,12:14:46.93,-663.57,474.12,633.30,-0.62,4.55,6.43,15.45,76.65,16.95,33.06,9.961,
02/07/2025,12:14:47.03,-592.29,466.80,666.50,-10.21,-4.83,-0.76,14.40,77.70,16.20,33.11,9.961,
02/07/2025,12:14:47.13,-633.30,452.15,660.16,-3.28,-4.88,-6.96,15.90,76.20,15.90,33.11,9.961,
02/07/2025,12:14:47.23,-633.79,451.66,656.25,-2.71,4.10,9.04,14.40,77.40,17.70,32.73,9.961,
02/07/2025,12:14:47.33,-610.84,440.92,673.34,-2.55,13.50,6.98,15.0,77.25,16.80,32.82,9.959,
02/07/2025,12:14:47.43,-649.90,452.64,629.88,-3.43,27.68,8.80,13.20,77.40,16.20,33.25,9.959,
02/07/2025,12:14:47.53,-640.63,421.88,601.07,-0.40,32.17,-0.57,14.25,78.0,17.10,33.06,9.959,
02/07/2025,12:14:47.64,-627.93,439.94,607.42,5.65,42.46,-13.70,15.0,76.80,14.55,33.06,9.959,
02/07/2025,12:14:47.74,-688.48,446.78,578.13,3.28,21.50,-6.74,15.90,75.90,11.40,32.92,9.959,
02/07/2025,12:14:47.84,-692.38,451.17,534.67,-1.03,2.34,-14.21,16.50,75.60,12.75,32.92,9.959,
02/07/2025,12:14:47.94,-707.52,429.69,524.90,-5.78,3.80,-14.35,17.70,75.45,11.40,32.97,9.959,
02/07/2025,12:14:48.04,-722.66,413.57,501.95,3.86,-0.58,-7.22,18.90,73.95,11.85,32.82,9.960,
02/07/2025,12:14:48.14,-719.73,393.07,512.21,-0.23,1.97,-1.40,18.30,74.55,11.25,33.06,9.960,
02/07/2025,12:14:48.24,-767.58,395.02,508.30,-4.42,-2.41,-6.18,19.05,76.05,12.0,32.92,9.960,
02/07/2025,12:14:48.34,-750.98,382.32,521.48,-6.37,-1.13,-4.78,18.30,72.90,11.70,33.11,9.960,
02/07/2025,12:14:48.44,-757.81,375.0,522.46,-1.63,-1.98,3.06,18.90,73.20,12.15,33.11,9.960,
02/07/2025,12:14:48.54,-702.15,405.76,534.67,-8.17,-17.78,15.64,18.30,76.05,14.55,32.82,9.960,
02/07/2025,12:14:48.64,-765.63,413.57,681.64,-34.18,-45.11,36.90,15.0,74.85,14.85,33.06,9.958,
02/07/2025,12:14:48.74,-526.37,357.91,597.17,-15.56,-28.92,0.83,12.45,76.65,19.80,32.92,9.958,
02/07/2025,12:14:48.84,-609.38,401.86,748.54,-16.97,-42.09,14.82,12.75,76.35,24.45,33.06,9.958,
02/07/2025,12:14:48.94,-471.19,421.39,793.46,-6.95,-24.84,1.21,8.70,77.40,25.35,33.06,9.958,
02/07/2025,12:14:49.05,-313.96,439.45,525.39,1.0,-6.05,-5.79,8.55,77.55,25.95,33.06,9.958,
02/07/2025,12:14:49.15,-484.38,410.64,840.33,-13.31,9.48,-15.22,9.75,75.60,26.25,33.06,9.958,
02/07/2025,12:14:49.25,-473.14,350.59,737.30,-16.04,18.22,-11.98,10.05,76.80,27.30,32.97,9.958,
02/07/2025,12:14:49.35,-510.74,337.40,788.57,4.77,21.08,-5.46,10.65,75.90,28.20,32.82,9.958,
02/07/2025,12:14:49.45,-526.37,452.15,710.45,-7.04,-6.49,4.08,10.20,77.40,26.85,33.11,9.958,
02/07/2025,12:14:49.55,-550.29,309.08,873.05,-32.34,-2.13,21.27,10.80,76.80,27.75,33.06,9.959,
02/07/2025,12:14:49.65,-499.02,243.65,752.44,-45.53,1.49,5.38,8.70,74.25,31.20,32.92,9.959,
02/07/2025,12:14:49.75,-547.36,274.90,834.47,5.29,51.05,-19.52,9.75,72.15,32.40,32.82,9.959,
02/07/2025,12:14:49.85,-636.23,221.19,851.56,-17.73,57.26,18.98,9.0,74.10,30.60,32.82,9.959,
02/07/2025,12:14:49.95,-729.49,240.72,717.77,29.95,122.57,21.11,14.70,74.70,27.15,33.16,9.959,
02/07/2025,12:14:50.05,-802.73,388.18,685.55,32.45,98.53,16.75,15.90,74.70,20.55,33.06,9.959,
02/07/2025,12:14:50.15,-1020.51,344.73,353.52,81.44,114.98,21.68,16.20,77.40,12.60,33.11,9.957,
02/07/2025,12:14:50.25,-861.33,368.16,93.26,37.02,98.52,51.84,13.95,77.40,2.25,32.97,9.957,
02/07/2025,12:14:50.35,-807.13,422.85,-58.59,15.79,49.36,48.78,10.95,78.15,-4.20,33.11,9.957,
02/07/2025,12:14:50.46,-782.71,496.58,-90.33,11.19,21.23,13.19,6.15,80.85,-5.25,33.06,9.957,
02/07/2025,12:14:50.56,-769.04,524.90,-148.93,0.63,-1.18,4.92,4.95,79.35,-6.75,32.97,9.957,
02/07/2025,12:14:50.66,-817.87,580.57,-146.00,-2.73,2.01,-8.73,3.75,78.75,-5.10,33.16,9.957,
02/07/2025,12:14:50.76,-859.86,614.75,-144.53,-3.10,2.19,-6.74,5.25,79.05,-5.85,33.16,9.957,
02/07/2025,12:14:50.86,-838.87,553.22,-159.18,1.24,15.38,-8.11,3.45,79.35,-7.35,33.25,9.957,
02/07/2025,12:14:50.96,-804.20,541.50,-222.17,29.89,24.25,38.64,6.15,78.15,-7.35,33.35,9.957,
02/07/2025,12:14:51.06,-641.60,425.29,-287.11,-21.97,7.50,-31.03,4.80,78.75,-5.85,33.25,9.958,
02/07/2025,12:14:51.16,-748.05,585.94,-189.45,-3.26,6.90,6.53,4.20,80.85,-2.70,33.25,9.958,
02/07/2025,12:14:51.26,-809.57,601.07,-161.13,-1.84,-0.01,0.05,4.20,81.15,-4.50,33.11,9.958,
02/07/2025,12:14:51.36,-775.39,602.05,-158.20,0.76,-1.06,3.08,3.15,80.85,-4.50,33.06,9.958,
02/07/2025,12:14:51.46,-833.01,669.92,-120.12,-34.39,-55.77,8.56,3.0,81.45,-3.15,33.06,9.958,
02/07/2025,12:14:51.56,-695.31,616.21,-142.58,-110.67,-250.14,70.72,0.45,81.15,7.80,33.30,9.956,
02/07/2025,12:14:51.66,-427.73,709.47,616.21,-75.48,-250.14,73.34,-5.55,84.45,22.65,33.30,9.956,
02/07/2025,12:14:51.76,-103.03,697.27,838.38,-82.10,-102.53,34.98,-16.65,81.60,28.20,33.16,9.956,
02/07/2025,12:14:51.87,243.65,606.45,742.19,-56.18,-131.31,70.05,-25.20,78.15,34.05,33.25,9.956,
02/07/2025,12:14:51.97,539.55,251.95,1078.13,9.69,-111.27,-39.35,-30.45,76.20,33.0,33.25,9.956,
02/07/2025,12:14:52.07,354.98,132.81,568.36,14.15,80.22,-1.72,-33.0,77.55,29.85,33.06,9.956,
02/07/2025,12:14:52.17,161.62,372.56,499.02,41.08,56.29,47.25,-30.90,80.10,28.95,33.25,9.956,
02/07/2025,12:14:52.27,240.23,665.04,931.64,19.62,18.19,-9.73,-32.70,78.90,27.60,33.25,9.956,
02/07/2025,12:14:52.37,396.48,601.07,849.12,83.24,-98.27,38.69,-30.15,80.10,23.85,33.06,9.957,
02/07/2025,12:14:52.47,357.42,699.71,646.00,84.41,-35.39,10.48,-34.80,79.95,16.05,33.06,9.957,
02/07/2025,12:14:52.57,321.29,703.13,565.43,83.06,57.71,-29.16,-35.70,81.15,8.55,33.16,9.957,
02/07/2025,12:14:52.67,415.04,848.14,595.70,-52.06,63.17,23.74,-36.90,79.65,6.30,33.35,9.957,
02/07/2025,12:14:52.77,325.68,642.09,356.45,41.29,-7.74,28.11,-38.55,77.25,10.20,33.06,9.957,
02/07/2025,12:14:52.87,500.49,755.86,405.27,108.07,-9.83,-4.44,-37.20,79.65,2.70,33.06,9.955,
02/07/2025,12:14:52.97,528.81,754.88,208.01,141.95,11.04,28.12,-39.45,73.95,-6.75,33.35,9.955,
02/07/2025,12:14:53.07,494.63,833.98,-30.76,21.76,-10.05,-10.28,-40.80,71.40,-11.70,33.35,9.955,
02/07/2025,12:14:53.17,498.54,873.05,80.57,57.24,-12.79,6.69,-42.30,70.65,-13.50,33.16,9.955,
02/07/2025,12:14:53.28,456.05,854.00,4.88,42.47,7.32,-5.13,-40.95,69.75,-19.50,33.16,9.955,
02/07/2025,12:14:53.38,541.99,825.20,-119.14,24.68,8.26,-14.96,-38.70,67.35,-18.0,33.11,9.955,
02/07/2025,12:14:53.48,493.16,854.98,-126.46,7.31,8.44,1.20,-40.20,66.60,-19.80,33.25,9.955,
02/07/2025,12:14:53.58,520.51,820.31,-152.34,-3.92,-12.68,13.27,-39.90,65.40,-19.50,33.11,9.955,
02/07/2025,12:14:53.68,528.81,819.34,-124.02,-11.46,-4.07,11.76,-40.65,63.60,-19.05,33.16,9.955,
02/07/2025,12:14:53.78,564.94,826.17,-77.15,-2.37,-3.37,12.91,-40.65,64.65,-19.80,33.16,9.956,
02/07/2025,12:14:53.88,585.45,791.50,-148.93,-4.80,-6.96,10.07,-39.75,64.05,-21.15,33.35,9.956,
02/07/2025,12:14:53.98,569.82,781.25,-147.95,1.12,0.41,-6.06,-41.55,64.95,-19.65,33.30,9.956,
02/07/2025,12:14:54.08,509.28,815.92,-197.75,-16.47,1.56,-26.84,-40.65,65.85,-20.55,33.11,9.956,
02/07/2025,12:14:54.18,556.15,848.14,-39.55,9.20,6.55,-25.44,-40.65,67.80,-21.0,33.11,9.956,
02/07/2025,12:14:54.28,515.63,827.15,-192.87,7.51,-19.04,-14.60,-40.65,66.60,-22.35,33.11,9.954,
02/07/2025,12:14:54.38,522.95,787.11,-252.44,2.04,-17.26,-21.0,-40.05,66.0,-22.65,33.11,9.954,
02/07/2025,12:14:54.48,497.07,865.72,-187.01,-0.93,5.03,-29.92,-38.40,67.05,-24.60,33.35,9.954,
02/07/2025,12:14:54.59,440.43,867.68,-204.59,3.14,-0.43,-10.0,-38.40,66.60,-24.30,33.16,9.954,
02/07/2025,12:14:54.69,449.71,882.32,-127.93,8.91,8.80,7.50,-36.75,67.20,-21.45,33.06,9.954,
02/07/2025,12:14:54.79,511.72,857.91,-231.45,9.29,5.44,-12.33,-36.90,67.05,-23.10,32.97,9.954,
02/07/2025,12:14:54.89,479.00,847.17,-189.45,8.51,9.56,-1.87,-38.40,67.35,-22.05,33.11,9.954,
02/07/2025,12:14:54.99,450.68,898.93,-123.05,7.66,5.27,-9.95,-38.25,65.70,-23.40,33.35,9.955,
02/07/2025,12:14:55.09,438.48,887.21,-191.41,5.23,-1.46,-11.19,-37.65,65.85,-22.80,33.35,9.955,
02/07/2025,12:14:55.19,412.60,873.05,-178.71,3.34,-1.60,-5.73,-37.05,67.20,-19.35,33.35,9.955,
02/07/2025,12:14:55.29,408.20,879.39,-177.73,-1.35,1.23,-2.03,-37.80,64.95,-20.70,33.25,9.955,
02/07/2025,12:14:55.39,420.41,880.37,-205.08,2.02,6.20,0.51,-36.90,65.85,-21.30,33.11,9.955,
02/07/2025,12:14:55.49,418.95,895.02,-169.92,-0.92,6.51,-5.21,-37.80,65.70,-20.40,32.97,9.955,
02/07/2025,12:14:55.59,418.95,876.46,-207.03,0.22,6.16,-7.65,-38.70,64.65,-20.25,33.11,9.955,
02/07/2025,12:14:55.69,384.28,857.42,-180.18,-6.46,10.66,-12.0,-37.80,67.95,-19.65,33.30,9.953,
02/07/2025,12:14:55.79,426.27,965.82,-189.94,-5.88,8.65,1.92,-37.80,67.65,-20.10,33.30,9.953,
02/07/2025,12:14:55.89,374.51,922.36,-169.43,2.14,-2.63,-0.45,-37.50,67.65,-18.60,33.35,9.953,
02/07/2025,12:14:56.00,367.19,916.02,-94.24,9.64,-1.71,-5.73,-36.15,65.85,-18.75,33.35,9.953,
02/07/2025,12:14:56.10,336.91,852.54,-128.91,3.09,3.59,-1.75,-36.75,67.65,-18.90,33.35,9.953,
02/07/2025,12:14:56.20,359.38,911.62,-166.50,-12.27,9.95,-9.27,-35.40,66.30,-19.05,33.11,9.954,
02/07/2025,12:14:56.30,398.44,950.68,-164.06,-5.95,6.89,-0.45,-37.50,67.95,-18.90,33.25,9.954,
02/07/2025,12:14:56.40,387.70,916.50,-142.09,2.44,2.02,-3.06,-37.20,68.10,-16.95,33.30,9.954,
02/07/2025,12:14:56.50,368.16,890.63,-148.93,-8.90,-1.24,-1.86,-34.50,66.45,-18.15,33.35,9.954,
02/07/2025,12:14:56.60,364.75,922.36,-120.12,-6.45,-1.34,-3.54,-38.25,67.65,-19.35,33.64,9.954,
02/07/2025,12:14:56.70,337.40,930.66,-143.55,1.56,-1.57,1.30,-36.75,69.15,-18.60,33.49,9.954,
02/07/2025,12:14:56.80,349.61,925.29,-135.25,-0.05,-1.44,-1.40,-36.15,67.35,-17.70,33.49,9.954,
02/07/2025,12:14:56.90,353.03,909.18,-153.81,0.34,2.02,-1.25,-36.45,68.10,-19.50,33.59,9.954,
02/07/2025,12:14:57.00,351.56,913.57,-125.0,-1.50,1.77,-1.81,-35.70,69.30,-18.75,33.44,9.954,
02/07/2025,12:14:57.10,355.47,920.90,-119.14,-2.26,1.85,-0.40,-37.50,68.40,-18.60,33.30,9.952,
02/07/2025,12:14:57.20,351.07,918.46,-118.65,0.98,1.63,-1.30,-37.05,68.70,-19.65,33.44,9.952,
02/07/2025,12:14:57.30,365.72,925.78,-120.12,-2.24,0.93,-0.42,-37.50,68.70,-17.55,33.35,9.953,
02/07/2025,12:14:57.41,350.59,906.74,-118.65,0.65,1.40,-0.51,-37.20,67.35,-18.45,33.68,9.953,
02/07/2025,12:14:57.51,367.19,910.64,-123.05,0.81,3.81,-0.70,-34.80,68.70,-16.80,33.64,9.953,
02/07/2025,12:14:57.61,344.73,935.55,-105.47,-2.34,4.72,-1.58,-36.0,68.40,-18.90,33.83,9.953,
02/07/2025,12:14:57.71,359.38,926.76,-126.95,-2.72,1.43,0.73,-35.40,68.55,-18.45,33.59,9.953,
02/07/2025,12:14:57.81,306.15,899.41,-142.09,-31.13,6.83,-4.60,-36.90,67.80,-18.45,33.88,9.953,
02/07/2025,12:14:57.91,217.77,1037.60,138.67,-123.60,53.58,4.20,-36.90,72.75,-13.95,33.30,9.953,
02/07/2025,12:14:58.01,308.11,1004.39,357.42,-37.84,15.74,26.64,-35.55,78.30,-5.85,33.68,9.953,
02/07/2025,12:14:58.11,331.05,953.61,229.49,-32.47,3.95,-1.31,-37.20,76.65,-4.20,33.44,9.953,
02/07/2025,12:14:58.21,219.24,977.05,330.57,-54.35,15.39,-42.98,-35.55,78.75,-2.55,33.49,9.953,
02/07/2025,12:14:58.31,158.20,890.63,343.75,-46.08,35.47,-48.52,-31.95,81.60,4.20,33.78,9.954,
02/07/2025,12:14:58.41,80.57,881.84,480.47,-32.25,53.47,-57.44,-28.05,82.95,7.65,33.64,9.954,
02/07/2025,12:14:58.51,-58.11,894.04,469.24,0.58,35.87,-16.99,-24.75,85.20,11.25,33.64,9.952,
02/07/2025,12:14:58.61,-86.91,870.12,479.49,3.20,11.07,-3.81,-24.15,85.50,10.35,33.44,9.952,
02/07/2025,12:14:58.71,-45.41,840.33,499.02,2.22,32.02,-27.25,-23.70,85.05,11.10,33.35,9.952,
02/07/2025,12:14:58.82,-169.92,855.47,464.36,13.52,53.83,-38.63,-21.45,85.05,11.40,33.49,9.952,
02/07/2025,12:14:58.92,-266.11,713.87,419.92,-17.0,-43.63,-126.62,-17.25,85.65,10.20,33.44,9.952,
02/07/2025,12:14:59.02,-215.82,692.38,548.34,-62.56,-106.20,-24.07,-13.65,85.50,15.15,33.49,9.952,
02/07/2025,12:14:59.12,-282.23,665.53,600.10,-15.64,-30.47,-82.97,-10.50,85.65,17.85,33.49,9.952,
02/07/2025,12:14:59.22,-101.07,328.61,1067.38,-141.34,50.37,5.30,-6.15,83.55,26.40,33.64,9.952,
02/07/2025,12:14:59.32,-372.07,657.23,921.39,5.73,8.50,156.24,-6.90,80.40,29.70,33.44,9.952,
02/07/2025,12:14:59.42,-260.74,504.88,1053.22,-22.56,-70.11,129.64,-15.15,83.85,27.60,33.49,9.953,
02/07/2025,12:14:59.52,-113.77,647.46,645.51,11.93,11.37,-15.02,-19.05,83.70,27.75,33.78,9.953,
02/07/2025,12:14:59.62,-271.48,615.23,788.57,1.81,32.74,-75.72,-13.65,81.60,26.85,33.49,9.953,
02/07/2025,12:14:59.72,-203.13,545.90,771.97,4.42,17.36,-20.10,-9.75,83.40,27.75,33.64,9.953,
02/07/2025,12:14:59.82,-263.18,612.30,729.98,1.86,12.16,18.78,-6.75,83.40,26.25,33.44,9.951,
02/07/2025,12:14:59.92,-301.76,541.99,714.36,-10.76,8.29,-14.97,-7.20,83.10,27.90,33.11,9.951,
02/07/2025,12:15:00.02,-345.21,552.73,737.79,-11.76,-0.62,-9.21,-4.95,83.10,28.20,33.44,9.951,
02/07/2025,12:15:00.13,-178.22,482.42,833.50,-40.80,-22.74,60.61,-1.65,80.85,28.95,33.78,9.951,
02/07/2025,12:15:00.23,-246.58,443.36,846.19,8.92,26.05,24.68,-1.50,81.0,30.30,33.59,9.951,
02/07/2025,12:15:00.33,-422.36,526.37,37.60,-5.47,-57.34,-225.12,-1.20,82.05,26.85,33.49,9.951,
02/07/2025,12:15:00.43,-597.66,705.57,745.61,-46.29,-25.99,83.40,0.45,80.85,27.90,33.64,9.951,
02/07/2025,12:15:00.53,-311.52,708.01,878.42,69.63,0.79,49.09,-5.55,82.20,29.55,33.68,9.952,
02/07/2025,12:15:00.63,-330.57,535.64,709.96,23.33,23.88,4.18,-6.15,85.05,26.40,33.68,9.952,
02/07/2025,12:15:00.73,-289.06,629.39,630.86,35.88,36.39,14.11,-8.25,86.10,23.40,33.49,9.952,
02/07/2025,12:15:00.83,-306.64,720.70,631.84,0.36,5.07,36.53,-9.75,85.65,21.15,33.44,9.952,
02/07/2025,12:15:00.93,-191.41,683.11,720.21,42.35,13.72,50.27,-12.75,86.10,21.45,33.44,9.952,
02/07/2025,12:15:01.03,-208.98,735.84,674.32,81.05,-5.63,54.23,-16.20,87.75,16.20,33.35,9.952,
02/07/2025,12:15:01.13,-107.91,818.36,541.99,26.42,-3.55,38.0,-21.90,85.50,11.40,33.59,9.952,
02/07/2025,12:15:01.23,-102.05,920.90,458.01,8.33,17.40,24.29,-22.80,86.85,9.75,33.59,9.950,
02/07/2025,12:15:01.33,-97.66,895.51,384.28,18.88,30.84,41.75,-26.40,85.80,9.60,33.49,9.950,
02/07/2025,12:15:01.43,61.52,840.82,363.28,29.83,35.11,35.57,-26.55,84.45,7.65,33.59,9.950,
02/07/2025,12:15:01.54,77.15,896.97,394.53,-20.59,16.05,39.35,-32.55,82.50,7.95,33.44,9.951,
02/07/2025,12:15:01.64,31.74,864.75,504.39,-22.40,-11.69,11.79,-34.80,81.75,9.75,33.64,9.951,
02/07/2025,12:15:01.74,-66.41,904.30,482.42,23.10,65.15,-14.82,-33.75,84.45,9.0,33.64,9.951,
02/07/2025,12:15:01.84,93.26,885.74,270.02,142.95,13.91,56.67,-33.15,81.15,4.20,33.59,9.951,
02/07/2025,12:15:01.94,70.31,918.46,77.15,197.63,-22.37,40.09,-37.50,76.35,-6.90,33.64,9.951,
02/07/2025,12:15:02.04,85.94,988.28,-325.20,52.40,-58.66,25.54,-37.65,70.05,-18.0,33.59,9.951,
02/07/2025,12:15:02.14,163.09,929.20,-338.87,5.85,-34.98,46.53,-37.05,66.0,-19.65,33.35,9.951,
02/07/2025,12:15:02.24,181.64,875.0,-404.79,2.74,-11.62,17.60,-37.95,65.40,-21.0,33.59,9.951,
02/07/2025,12:15:02.34,198.73,875.49,-335.94,-14.06,-11.13,19.68,-38.55,65.25,-22.20,33.83,9.951,
02/07/2025,12:15:02.44,209.47,890.14,-375.49,-3.29,9.15,1.01,-37.65,63.60,-23.10,33.64,9.951,
02/07/2025,12:15:02.54,236.82,927.73,-354.00,-3.62,3.83,-1.41,-38.40,66.30,-22.05,33.83,9.950,
02/07/2025,12:15:02.64,239.75,845.21,-341.31,-4.67,5.02,2.23,-37.95,65.10,-21.30,33.68,9.950,
02/07/2025,12:15:02.74,212.89,891.60,-312.99,-0.29,3.67,-4.79,-37.95,65.85,-21.75,33.83,9.950,
02/07/2025,12:15:02.85,197.75,911.62,-232.42,-5.47,-2.38,-1.63,-37.50,65.70,-21.45,33.83,9.950,
02/07/2025,12:15:02.95,201.66,908.20,-352.05,-0.57,3.95,-0.11,-39.0,66.45,-21.90,33.88,9.950,
02/07/2025,12:15:03.05,211.43,932.62,-325.68,-6.40,1.31,7.15,-38.70,65.85,-21.0,33.64,9.950,
02/07/2025,12:15:03.15,234.38,920.41,-337.89,1.35,6.27,-5.91,-36.45,65.85,-21.30,33.49,9.950,
02/07/2025,12:15:03.25,199.71,898.93,-326.17,-3.01,-0.36,-0.63,-36.90,67.35,-21.30,34.12,9.950,
02/07/2025,12:15:03.35,230.96,905.76,-331.05,0.27,-0.52,1.80,-38.70,65.85,-21.30,34.12,9.950,
02/07/2025,12:15:03.45,239.26,916.99,-336.91,2.76,1.73,-2.72,-38.25,65.70,-21.90,33.88,9.950,
02/07/2025,12:15:03.55,230.47,891.11,-355.47,0.28,2.08,-1.82,-38.55,66.75,-22.95,33.88,9.951,
