rtcDate,rtcTime,aX,aY,aZ,gX,gY,gZ,mX,mY,mZ,imu_degC,output_Hz,
01/01/2000,00:03:53.63,-275.39,24.41,975.59,0.15,0.08,0.27,21.75,32.25,47.40,31.05,0.0,
01/01/2000,00:03:53.73,-273.44,34.18,963.87,-2.05,3.16,-2.72,21.15,32.85,48.0,30.71,20.0,
01/01/2000,00:03:53.83,-264.16,26.37,967.77,-1.51,0.40,-2.85,22.80,33.0,48.15,30.95,15.0,
01/01/2000,00:03:53.93,-257.32,37.60,965.33,1.27,1.84,-1.40,22.50,33.0,46.80,30.47,13.333,
01/01/2000,00:03:54.03,-264.16,32.23,969.24,-0.89,1.60,0.63,22.50,31.80,47.40,30.95,12.500,
01/01/2000,00:03:54.13,-269.53,27.83,971.19,0.37,0.50,-1.48,22.95,31.65,48.30,30.71,12.0,
01/01/2000,00:03:54.23,-267.58,36.62,966.31,-1.86,1.73,-1.05,21.15,30.90,48.0,30.52,11.667,
01/01/2000,00:03:54.33,-266.11,33.69,966.80,0.89,-1.03,-0.79,22.50,33.30,48.15,31.14,11.268,
01/01/2000,00:03:54.43,-250.98,29.30,974.61,1.86,3.64,1.20,22.95,33.15,46.50,31.00,11.111,
01/01/2000,00:03:54.53,-260.74,27.34,972.66,-0.48,1.44,-0.73,22.50,33.75,47.10,30.71,10.989,
01/01/2000,00:03:54.64,-250.0,32.71,969.24,1.11,0.71,-4.05,22.65,30.90,48.30,30.95,10.891,
01/01/2000,00:03:54.74,-257.81,37.60,968.26,0.35,1.24,0.25,23.25,34.50,47.10,30.95,10.811,
01/01/2000,00:03:54.84,-255.86,25.39,972.66,-0.36,3.01,0.37,22.20,31.95,46.50,31.05,10.744,
01/01/2000,00:03:54.94,-261.72,36.62,971.19,-0.34,2.31,0.50,21.75,31.50,48.60,30.86,10.687,
01/01/2000,00:03:55.04,-267.09,29.30,974.12,-0.22,4.31,-0.90,22.50,34.20,47.85,31.00,10.638,
01/01/2000,00:03:55.14,-267.09,44.43,978.03,-0.04,2.69,-0.32,22.50,31.50,47.85,30.86,10.596,
01/01/2000,00:03:55.24,-257.81,39.06,966.31,-0.33,1.61,-1.75,22.80,33.75,47.40,30.81,10.559,
01/01/2000,00:03:55.34,-267.58,41.02,961.91,-0.38,2.57,2.30,21.90,31.95,47.25,30.95,10.526,
01/01/2000,00:03:55.44,-265.63,28.81,966.31,-0.49,3.70,-3.98,22.65,31.65,47.70,31.05,10.497,
01/01/2000,00:03:55.54,-272.46,25.88,967.77,-0.99,1.67,-2.82,22.80,31.50,46.35,30.71,10.471,
01/01/2000,00:03:55.64,-263.67,23.93,960.94,1.49,0.11,-2.24,21.75,33.30,48.15,30.71,10.448,
01/01/2000,00:03:55.74,-267.09,34.67,969.73,-0.32,2.19,0.27,21.90,34.35,47.25,30.95,10.427,
01/01/2000,00:03:55.84,-275.88,24.90,974.61,-1.53,2.18,-1.92,22.50,33.0,47.10,30.71,10.407,
01/01/2000,00:03:55.94,-260.25,37.11,975.59,1.84,2.05,1.40,22.80,33.30,46.80,30.95,10.390,
01/01/2000,00:03:56.04,-268.07,37.11,971.68,-0.24,1.82,-1.24,21.15,32.40,48.0,31.05,10.331,
01/01/2000,00:03:56.14,-266.60,32.23,976.56,-0.97,2.40,-0.24,24.0,31.80,48.15,31.05,10.317,
01/01/2000,00:03:56.24,-259.28,22.95,969.24,0.29,-0.64,-0.61,23.25,32.55,48.15,30.95,10.305,
01/01/2000,00:03:56.35,-259.28,37.60,960.94,-0.27,1.69,0.26,23.55,33.0,47.10,31.05,10.294,
01/01/2000,00:03:56.45,-260.25,40.04,962.89,0.19,1.69,-3.23,22.80,32.55,47.85,30.95,10.284,
01/01/2000,00:03:56.55,-252.93,28.32,972.66,-0.09,1.50,-1.73,23.25,33.0,46.35,30.86,10.274,
01/01/2000,00:03:56.65,-262.70,32.23,961.43,-1.36,1.34,-0.49,22.20,32.40,48.0,30.62,10.265,
01/01/2000,00:03:56.75,-257.81,33.20,971.19,-1.91,2.27,-0.11,23.40,31.65,46.95,30.95,10.256,
01/01/2000,00:03:56.85,-269.53,39.55,977.54,-0.36,1.44,-3.89,23.40,32.85,47.70,30.81,10.248,
01/01/2000,00:03:56.95,-270.51,38.09,960.45,-2.75,1.48,0.92,23.40,32.40,47.25,31.14,10.241,
01/01/2000,00:03:57.05,-263.18,36.13,975.10,0.37,2.02,-0.01,22.80,32.55,48.15,30.81,10.234,
01/01/2000,00:03:57.15,-266.11,27.34,973.14,-0.81,1.97,-2.30,21.90,34.35,48.30,31.05,10.227,
01/01/2000,00:03:57.25,-253.42,31.25,970.21,-0.42,4.43,-0.73,21.90,32.40,48.30,30.86,10.221,
01/01/2000,00:03:57.35,-256.84,33.69,979.98,0.01,-1.64,0.24,22.05,33.75,48.15,30.86,10.215,
01/01/2000,00:03:57.45,-255.37,34.67,979.49,-0.69,0.77,0.69,22.80,34.50,48.60,30.62,10.209,
01/01/2000,00:03:57.55,-264.65,36.13,981.45,0.14,1.18,1.35,23.40,33.15,48.0,30.86,10.204,
01/01/2000,00:03:57.65,-266.60,22.46,979.98,0.99,2.95,-0.75,22.20,31.95,48.75,30.71,10.199,
01/01/2000,00:03:57.75,-249.51,34.18,971.19,0.24,1.81,-0.90,21.90,32.40,48.0,31.05,10.169,
01/01/2000,00:03:57.85,-260.25,30.76,967.29,-0.89,2.07,-1.66,23.25,33.30,47.10,31.14,10.165,
01/01/2000,00:03:57.95,-256.35,30.76,967.77,2.17,0.16,-0.35,23.25,33.75,48.60,30.71,10.162,
01/01/2000,00:03:58.05,-269.04,31.74,983.40,-0.17,1.15,-3.45,22.20,31.65,47.70,31.05,10.158,
01/01/2000,00:03:58.16,-268.55,28.81,968.26,-1.50,2.10,-0.76,22.50,31.05,47.85,30.86,10.155,
01/01/2000,00:03:58.26,-257.32,29.79,958.98,0.66,-0.31,0.72,22.65,34.65,47.25,30.67,10.151,
02/07/2025,12:13:37.68,-262.21,38.09,969.73,0.63,0.81,0.47,21.90,31.65,47.70,31.05,0.0,
02/07/2025,12:13:37.78,-270.02,41.02,968.75,0.39,-0.37,-0.79,22.80,31.80,47.10,31.14,20.0,
02/07/2025,12:13:37.88,-262.21,35.64,976.56,-2.77,3.49,-0.48,23.40,31.20,47.70,31.05,14.286,
02/07/2025,12:13:37.98,-259.77,38.57,955.57,-1.61,2.08,-1.56,21.90,33.90,48.75,30.67,12.903,
02/07/2025,12:13:38.08,-261.72,33.20,964.84,-2.24,1.50,-1.31,21.90,31.95,47.25,31.19,12.195,
02/07/2025,12:13:38.18,-247.07,42.97,974.12,-1.12,0.49,-0.72,22.50,33.0,47.40,31.14,11.765,
02/07/2025,12:13:38.29,-264.16,45.41,976.56,-2.96,3.47,1.48,22.50,31.80,47.85,31.14,11.475,
02/07/2025,12:13:38.39,-275.88,27.34,970.70,-0.13,2.37,-3.37,24.0,34.20,47.40,31.05,11.268,
02/07/2025,12:13:38.49,-266.60,39.06,974.61,-0.08,3.26,-0.01,23.25,32.25,47.40,31.14,11.111,
02/07/2025,12:13:38.59,-262.70,26.37,970.70,0.38,0.85,2.31,22.50,32.25,47.85,31.14,10.989,
02/07/2025,12:13:38.69,-260.74,34.67,969.73,1.27,0.15,-2.98,23.55,33.30,47.10,31.14,10.891,
02/07/2025,12:13:38.79,-252.44,39.06,969.73,-1.61,-0.56,-1.59,22.80,33.0,47.40,31.00,10.811,
02/07/2025,12:13:38.89,-261.23,41.02,972.17,0.47,3.44,-1.37,22.20,32.40,46.50,31.05,10.744,
02/07/2025,12:13:38.99,-256.35,41.50,970.21,0.90,1.09,0.05,22.95,34.35,46.50,30.95,10.687,
02/07/2025,12:13:39.09,-262.70,38.57,968.75,0.23,-0.03,-1.70,23.40,33.90,48.75,31.05,10.638,
02/07/2025,12:13:39.19,-260.74,44.43,969.24,-2.41,3.53,0.34,21.30,32.55,46.80,31.19,10.596,
02/07/2025,12:13:39.29,-260.74,32.23,967.29,-0.52,4.40,-0.79,23.25,33.75,47.85,30.62,10.559,
02/07/2025,12:13:39.39,-261.72,29.79,970.21,-1.28,3.11,1.58,21.15,31.95,48.75,30.86,10.526,
02/07/2025,12:13:39.49,-255.86,24.41,962.40,-1.91,0.72,-1.40,22.65,33.60,47.25,31.00,10.497,
02/07/2025,12:13:39.59,-241.70,28.32,961.91,1.53,2.95,-2.83,21.30,31.80,48.60,31.05,10.417,
02/07/2025,12:13:39.69,-270.51,29.30,962.89,0.87,1.31,1.19,21.0,32.25,48.60,30.95,10.396,
02/07/2025,12:13:39.79,-268.55,27.34,967.29,1.08,1.10,-1.15,22.80,32.25,47.85,31.00,10.377,
02/07/2025,12:13:39.89,-264.65,17.58,976.07,0.66,0.89,-1.0,22.05,32.25,48.15,30.81,10.360,
02/07/2025,12:13:40.00,-261.72,24.41,971.19,-1.60,1.64,-0.27,22.65,31.95,46.95,31.14,10.345,
02/07/2025,12:13:40.10,-257.81,27.83,963.38,-0.40,1.66,-1.12,22.95,33.60,46.95,30.95,10.331,
02/07/2025,12:13:40.20,-274.41,26.37,961.43,-0.67,1.58,0.51,22.05,33.30,46.80,31.00,10.317,
02/07/2025,12:13:40.30,-255.86,37.60,970.21,-1.25,0.57,-1.11,21.90,32.85,46.95,31.14,10.305,
02/07/2025,12:13:40.40,-251.46,39.55,973.14,-0.84,2.40,-1.66,20.70,31.65,48.0,31.24,10.294,
02/07/2025,12:13:40.50,-275.39,42.97,968.26,-2.74,2.24,-2.14,23.55,33.30,46.80,31.24,10.284,
02/07/2025,12:13:40.60,-252.93,44.43,971.68,-1.86,1.61,-0.45,22.05,31.80,47.10,31.14,10.274,
02/07/2025,12:13:40.70,-252.44,35.16,980.96,1.51,2.85,-1.28,22.65,31.95,48.30,31.14,10.265,
02/07/2025,12:13:40.80,-269.53,33.20,966.80,-0.40,0.55,-0.07,23.55,33.75,46.35,30.95,10.256,
02/07/2025,12:13:40.90,-271.00,34.67,972.66,-0.09,0.44,2.27,22.20,32.40,46.50,31.38,10.248,
02/07/2025,12:13:41.00,-267.09,30.27,977.05,-0.79,1.15,0.53,22.65,34.35,47.70,30.95,10.241,
02/07/2025,12:13:41.10,-250.98,44.43,963.87,0.53,-0.76,2.69,22.95,32.40,46.50,31.05,10.234,
02/07/2025,12:13:41.20,-257.32,45.90,959.47,-1.24,-0.54,-0.31,22.80,34.50,47.85,31.05,10.227,
02/07/2025,12:13:41.30,-255.86,35.64,969.24,-0.15,1.73,1.43,23.40,33.60,47.70,30.86,10.193,
02/07/2025,12:13:41.40,-254.88,26.86,967.29,0.56,3.82,-1.77,24.30,32.25,46.35,31.14,10.188,
02/07/2025,12:13:41.50,-255.37,36.13,962.40,-0.31,0.55,-1.73,23.40,33.60,48.0,31.00,10.183,
02/07/2025,12:13:41.60,-267.09,39.06,963.87,-0.49,2.10,-0.94,21.90,32.85,47.25,31.05,10.178,
02/07/2025,12:13:41.71,-249.51,31.25,971.68,-2.87,1.73,-3.89,22.65,33.15,47.70,31.05,10.174,
02/07/2025,12:13:41.81,-271.48,32.23,970.70,-1.19,2.77,-3.43,22.05,32.55,47.40,31.05,10.169,
02/07/2025,12:13:41.91,-262.21,29.30,964.36,0.22,3.14,-1.06,21.30,32.25,47.10,31.14,10.165,
02/07/2025,12:13:42.01,-263.67,43.46,959.96,-0.07,1.70,2.56,22.65,32.40,47.25,31.24,10.162,
02/07/2025,12:13:42.11,-264.16,25.88,970.70,-0.40,1.21,1.80,22.50,32.55,47.10,31.00,10.158,
02/07/2025,12:13:42.21,-259.77,35.64,970.70,0.10,0.99,1.28,22.50,32.25,48.60,31.19,10.155,
02/07/2025,12:13:42.31,-259.77,35.64,966.31,1.98,2.78,1.21,22.50,33.30,47.10,31.14,10.151,
02/07/2025,12:13:42.41,-265.14,27.83,958.50,-1.13,2.14,-2.42,21.90,32.85,46.95,31.14,10.148,
02/07/2025,12:13:42.51,-263.67,29.30,971.19,1.62,2.03,0.92,22.95,33.15,46.95,31.34,10.145,
02/07/2025,12:13:42.61,-269.04,24.90,962.40,-0.24,1.56,1.40,22.50,32.55,47.85,30.86,10.142,
02/07/2025,12:13:42.71,-270.02,43.46,961.43,-0.18,2.01,-1.21,22.65,32.40,46.95,31.05,10.139,
02/07/2025,12:13:42.81,-254.39,27.34,971.68,-1.03,-1.21,-0.24,22.20,33.15,48.30,31.34,10.136,
02/07/2025,12:13:42.91,-264.65,31.74,973.14,0.88,1.61,-0.34,22.05,33.30,46.35,30.95,10.134,
02/07/2025,12:13:43.01,-258.79,33.69,970.21,-1.34,2.92,0.57,23.55,32.55,47.85,31.19,10.112,
02/07/2025,12:13:43.11,-260.25,33.20,965.33,-2.57,0.97,-3.56,22.20,31.65,48.0,31.05,10.110,
02/07/2025,12:13:43.21,-259.77,28.32,955.57,-1.12,0.71,-1.46,22.20,31.20,46.20,31.14,10.108,
02/07/2025,12:13:43.31,-262.21,29.79,970.21,1.92,0.34,-0.11,22.65,32.85,48.75,31.19,10.106,
02/07/2025,12:13:43.42,-264.65,33.69,967.29,1.58,0.96,-0.69,24.0,31.80,48.15,30.86,10.105,
02/07/2025,12:13:43.52,-258.30,35.16,960.94,1.83,-1.68,-1.78,22.05,32.25,47.10,31.05,10.103,
02/07/2025,12:13:43.62,-260.25,40.04,975.10,-0.13,1.92,-0.28,22.50,32.55,47.85,31.19,10.101,
02/07/2025,12:13:43.72,-259.28,36.13,961.43,1.25,0.63,-0.20,23.25,33.0,46.80,30.86,10.099,
02/07/2025,12:13:43.82,-264.16,25.88,965.33,1.47,3.06,1.64,21.45,32.85,47.25,31.00,10.098,
02/07/2025,12:13:43.92,-257.81,43.46,968.26,-1.65,0.30,0.21,21.90,31.95,48.0,30.95,10.096,
02/07/2025,12:13:44.02,-260.74,29.79,976.07,-2.24,1.44,0.90,23.55,31.50,47.40,30.86,10.095,
02/07/2025,12:13:44.12,-273.44,32.71,970.70,-0.36,0.02,-1.44,22.50,33.0,47.10,31.00,10.093,
02/07/2025,12:13:44.22,-262.21,29.79,968.26,-0.23,5.39,-2.11,22.80,32.55,48.90,31.14,10.092,
02/07/2025,12:13:44.32,-265.14,37.11,971.68,-1.97,1.21,-0.92,22.20,31.95,47.25,31.24,10.090,
02/07/2025,12:13:44.42,-276.86,38.57,973.14,-2.96,3.73,-2.01,22.50,31.80,48.15,31.19,10.089,
02/07/2025,12:13:44.52,-260.25,36.62,975.10,-0.71,0.93,-1.28,22.65,31.65,46.95,31.05,10.088,
02/07/2025,12:13:44.62,-264.65,35.16,961.43,-2.05,2.42,-0.76,24.30,32.55,47.85,31.14,10.086,
02/07/2025,12:13:44.72,-261.72,39.55,967.77,-0.61,0.30,1.29,22.20,31.95,47.25,31.19,10.071,
02/07/2025,12:13:44.82,-262.70,22.95,966.80,0.66,0.34,0.75,22.20,32.40,48.30,30.95,10.070,
02/07/2025,12:13:44.92,-248.54,35.16,965.33,-1.07,2.31,0.67,22.95,33.60,48.0,31.14,10.069,
02/07/2025,12:13:45.02,-265.14,38.09,977.05,0.56,0.88,0.09,22.20,33.15,46.95,31.19,10.068,
02/07/2025,12:13:45.13,-268.55,36.62,980.47,0.88,1.06,0.24,22.50,32.25,47.10,31.05,10.067,
02/07/2025,12:13:45.23,-263.67,26.86,973.63,0.24,3.07,-0.72,22.95,33.15,46.20,31.05,10.066,
02/07/2025,12:13:45.33,-259.28,37.60,972.17,-0.25,3.31,-2.15,22.20,31.20,47.25,30.95,10.065,
02/07/2025,12:13:45.43,-263.67,44.92,970.21,-2.93,1.85,-0.32,22.80,33.0,47.40,31.05,10.065,
02/07/2025,12:13:45.53,-268.07,34.18,975.10,-0.08,1.98,-1.11,23.40,31.95,48.0,31.14,10.064,
02/07/2025,12:13:45.63,-261.72,32.71,974.12,-0.30,0.18,-1.17,22.05,34.50,46.35,30.95,10.063,
02/07/2025,12:13:45.73,-259.77,22.46,968.75,0.15,3.55,0.98,22.65,32.40,47.25,31.14,10.062,
02/07/2025,12:13:45.83,-272.46,33.69,970.70,-1.71,0.98,0.90,22.65,32.85,49.05,31.19,10.061,
02/07/2025,12:13:45.93,-253.91,31.74,974.61,0.41,3.77,-1.71,23.70,32.40,47.25,30.86,10.061,
02/07/2025,12:13:46.03,-271.97,34.67,966.31,0.88,-0.35,-0.85,22.20,32.40,48.0,31.24,10.060,
02/07/2025,12:13:46.13,-266.60,34.67,973.14,1.14,1.29,1.75,21.90,32.85,47.70,31.24,10.059,
02/07/2025,12:13:46.23,-257.81,32.23,967.29,0.85,1.76,-0.46,22.65,32.40,47.70,30.95,10.058,
02/07/2025,12:13:46.33,-262.21,39.06,974.12,-1.79,2.07,0.66,23.25,32.25,47.40,31.14,10.058,
02/07/2025,12:13:46.43,-267.58,45.90,976.56,-1.95,1.58,-1.02,23.40,31.95,48.30,31.00,10.046,
02/07/2025,12:13:46.53,-268.07,29.30,969.73,0.08,1.87,-2.62,22.50,32.55,47.40,31.00,10.045,
02/07/2025,12:13:46.63,-254.39,31.74,975.10,-0.90,1.21,-1.05,22.80,33.30,46.35,31.19,10.045,
02/07/2025,12:13:46.73,-267.58,34.18,958.98,-1.54,3.77,-2.90,22.80,32.25,46.80,30.95,10.044,
02/07/2025,12:13:46.84,-267.58,34.67,974.12,-2.21,0.36,0.95,22.20,32.40,46.95,31.05,10.044,
02/07/2025,12:13:46.94,-268.55,34.18,981.45,0.30,1.50,-1.32,22.50,33.0,46.35,31.14,10.043,
02/07/2025,12:13:47.04,-253.42,45.90,976.07,0.47,1.08,-0.67,22.20,32.40,47.70,31.14,10.043,
02/07/2025,12:13:47.14,-262.21,30.76,972.66,-0.27,-0.03,-0.65,23.25,32.55,47.85,31.14,10.042,
02/07/2025,12:13:47.24,-264.65,34.18,978.52,-0.24,3.21,1.69,22.20,33.90,48.0,31.24,10.042,
02/07/2025,12:13:47.34,-266.60,29.79,964.36,0.72,0.41,0.84,22.80,33.75,47.10,30.86,10.041,
02/07/2025,12:13:47.44,-256.84,34.18,971.19,0.36,-0.05,-1.34,22.50,32.55,46.80,31.05,10.041,
02/07/2025,12:13:47.54,-262.70,41.99,971.68,-0.79,2.08,-1.34,23.55,32.55,48.15,30.86,10.041,
02/07/2025,12:13:47.64,-268.55,28.81,971.19,-0.66,0.85,0.68,23.25,31.50,47.40,31.19,10.040,
02/07/2025,12:13:47.74,-259.77,32.23,986.33,-2.91,3.36,0.28,22.05,32.55,47.10,31.05,10.040,
02/07/2025,12:13:47.84,-323.73,37.60,996.09,-4.29,13.58,14.41,22.95,33.60,48.0,30.81,10.039,
02/07/2025,12:13:47.94,-318.85,37.11,998.54,0.26,-1.50,5.05,23.55,34.95,48.15,31.14,10.039,
02/07/2025,12:13:48.04,-312.01,55.66,993.16,0.32,-14.44,-0.69,22.50,33.75,48.60,31.05,10.039,
02/07/2025,12:13:48.14,401.86,139.65,249.02,6.15,-24.07,1.95,18.75,34.20,50.70,31.14,10.029,
02/07/2025,12:13:48.24,100.10,153.81,765.14,9.13,-44.48,-17.52,14.25,36.45,54.45,31.19,10.028,
02/07/2025,12:13:48.34,-74.71,111.82,1055.66,0.66,-39.74,1.43,12.75,37.20,57.30,31.00,10.028,
02/07/2025,12:13:48.44,232.91,479.00,830.57,22.97,-81.45,8.40,9.15,39.75,57.90,31.05,10.028,
02/07/2025,12:13:48.55,99.12,144.04,960.45,2.40,-51.26,10.50,7.05,39.45,59.85,31.14,10.028,
02/07/2025,12:13:48.65,232.42,133.30,909.67,-89.90,53.16,-13.34,1.95,38.10,60.0,30.95,10.027,
02/07/2025,12:13:48.75,255.86,15.63,969.24,-143.53,15.65,9.93,4.65,29.40,57.45,31.34,10.027,
02/07/2025,12:13:48.85,76.17,-372.56,992.68,-161.43,11.79,25.89,8.25,16.80,49.65,31.00,10.027,
02/07/2025,12:13:48.95,-62.50,-521.48,689.94,-90.76,22.34,-11.98,10.95,9.75,41.85,31.14,10.027,
02/07/2025,12:13:49.05,29.30,-537.60,680.66,-5.98,45.92,-17.02,10.95,5.85,37.05,31.38,10.026,
02/07/2025,12:13:49.15,-52.73,-508.79,753.42,5.63,76.77,-48.49,9.90,3.90,35.55,31.14,10.026,
02/07/2025,12:13:49.25,-19.53,-541.99,883.30,-4.85,27.61,-56.92,9.45,3.60,35.25,30.86,10.026,
02/07/2025,12:13:49.35,-14.65,-574.22,872.07,21.27,27.51,-32.40,8.55,0.75,32.40,31.24,10.026,
02/07/2025,12:13:49.45,-96.19,-522.95,850.10,26.61,38.55,-45.61,6.75,1.80,34.35,31.24,10.025,
02/07/2025,12:13:49.55,84.96,-520.02,911.62,-7.02,-0.74,-17.62,3.45,-0.90,35.55,30.86,10.025,
02/07/2025,12:13:49.65,-36.13,-518.07,824.71,-15.98,-7.98,-14.95,3.15,-2.40,35.25,31.14,10.025,
02/07/2025,12:13:49.75,45.41,-460.94,889.65,23.12,1.69,-28.79,1.20,-2.85,34.80,31.14,10.025,
02/07/2025,12:13:49.85,70.31,-446.29,906.25,0.24,-7.47,-20.79,0.30,-0.30,36.15,31.14,10.016,
02/07/2025,12:13:49.95,91.31,-474.61,874.51,-12.56,-35.44,-0.40,-2.25,-1.05,35.40,31.24,10.016,
02/07/2025,12:13:50.05,125.98,-471.19,872.07,-1.80,7.21,-6.83,-3.0,-2.25,35.40,31.14,10.016,
02/07/2025,12:13:50.15,128.42,-492.68,871.09,-10.34,5.32,-2.02,-2.70,-2.40,36.30,31.24,10.016,
02/07/2025,12:13:50.26,148.44,-505.86,893.07,1.11,-2.18,-5.16,-2.55,-1.80,35.70,31.24,10.016,
02/07/2025,12:13:50.36,122.56,-515.14,835.45,-13.60,1.46,7.72,-2.55,-3.75,35.70,30.95,10.016,
02/07/2025,12:13:50.46,131.35,-524.90,842.29,-2.50,-1.16,-2.74,-3.15,-3.15,34.50,31.19,10.016,
02/07/2025,12:13:50.56,102.05,-516.60,824.71,0.05,5.44,1.24,-3.90,-3.15,34.50,31.14,10.016,
02/07/2025,12:13:50.66,134.77,-530.76,851.56,-4.09,-6.48,0.66,-3.45,-1.50,35.40,31.05,10.015,
02/07/2025,12:13:50.76,140.63,-516.60,845.70,-4.38,2.0,-2.52,-3.45,-2.85,35.25,31.34,10.015,
02/07/2025,12:13:50.86,135.25,-542.48,838.87,-14.69,-8.82,3.0,-3.45,-2.40,34.50,31.00,10.015,
02/07/2025,12:13:50.96,117.19,-592.29,843.26,-13.90,1.73,4.64,-2.40,-3.60,33.45,31.38,10.015,
02/07/2025,12:13:51.06,163.09,-563.48,847.17,-18.11,14.64,19.69,-2.40,-3.90,31.20,31.19,10.015,
02/07/2025,12:13:51.16,99.12,-606.93,801.76,-56.81,29.46,36.76,-0.30,-5.25,31.35,31.00,10.015,
02/07/2025,12:13:51.26,-44.43,-709.96,730.96,-78.82,23.68,35.30,2.70,-4.80,23.85,31.24,10.015,
02/07/2025,12:13:51.36,52.25,-893.55,322.27,-87.59,0.35,63.17,6.90,-7.80,18.75,31.24,10.015,
02/07/2025,12:13:51.46,-208.50,-1003.42,460.94,-73.44,8.44,11.35,11.25,-5.70,11.25,31.14,10.015,
02/07/2025,12:13:51.56,-259.77,-933.11,350.10,-65.99,30.85,-6.0,11.70,-3.60,6.75,31.14,10.007,
02/07/2025,12:13:51.66,-172.36,-750.0,201.66,-61.47,11.76,13.39,12.0,-2.55,2.55,31.19,10.007,
02/07/2025,12:13:51.76,-229.98,-931.64,230.96,-28.27,21.81,9.36,11.55,-2.25,0.0,31.00,10.007,
02/07/2025,12:13:51.86,-213.87,-991.21,131.35,-33.89,-27.62,23.56,14.55,-0.30,-0.60,31.14,10.007,
02/07/2025,12:13:51.96,-137.21,-720.70,249.02,-43.95,12.26,25.54,15.15,0.15,-4.50,30.95,10.007,
02/07/2025,12:13:52.07,-758.79,-1133.30,1.46,-39.58,56.41,-22.73,16.50,3.0,-7.65,31.19,10.007,
02/07/2025,12:13:52.17,-112.79,-1177.25,-12.70,23.42,55.02,14.29,13.50,3.45,-13.05,31.00,10.007,
02/07/2025,12:13:52.27,-289.06,-955.08,-170.41,-34.98,70.72,123.66,10.65,5.10,-17.70,30.95,10.007,
02/07/2025,12:13:52.37,-338.38,-942.38,-275.88,-41.18,46.84,48.10,10.50,8.40,-21.45,31.05,10.007,
02/07/2025,12:13:52.47,-379.88,-946.78,-353.52,-54.53,67.02,43.18,9.30,11.10,-26.55,31.34,10.007,
02/07/2025,12:13:52.57,-325.68,-792.97,-496.09,-23.28,60.39,19.54,4.65,14.70,-28.95,30.86,10.007,
02/07/2025,12:13:52.67,-310.55,-801.27,-537.60,-13.13,41.90,11.21,2.70,17.40,-31.95,31.34,10.007,
02/07/2025,12:13:52.77,-348.63,-788.57,-546.39,-1.02,-0.31,6.51,1.65,19.35,-33.0,31.14,10.007,
02/07/2025,12:13:52.87,-318.85,-774.90,-563.48,-1.53,-0.03,-2.97,2.25,19.95,-33.15,31.05,10.007,
02/07/2025,12:13:52.97,-303.22,-781.25,-553.71,-4.07,8.06,0.82,1.80,18.45,-33.15,31.24,10.007,
02/07/2025,12:13:53.07,-321.78,-772.95,-566.89,11.22,9.85,0.89,-0.15,18.90,-33.0,31.24,10.006,
02/07/2025,12:13:53.17,-311.04,-805.66,-544.92,8.69,5.37,12.63,0.30,19.20,-33.90,30.86,10.006,
02/07/2025,12:13:53.27,-323.24,-798.34,-518.55,13.41,1.53,4.63,-1.80,18.0,-32.85,31.34,10.0,
02/07/2025,12:13:53.37,-300.29,-777.34,-515.14,6.92,-14.92,-3.47,-1.05,17.25,-33.15,31.38,10.0,
02/07/2025,12:13:53.47,-284.67,-751.95,-619.14,13.89,-34.97,6.50,1.95,16.20,-32.70,31.19,10.0,
02/07/2025,12:13:53.57,-406.25,-835.94,-426.27,-3.45,-4.11,2.35,4.20,16.20,-33.45,31.14,10.0,
02/07/2025,12:13:53.68,-383.30,-829.10,-475.10,-6.24,9.37,5.02,3.90,15.45,-31.50,31.34,10.0,
02/07/2025,12:13:53.78,-372.07,-830.57,-467.77,-0.31,19.91,9.13,1.50,16.50,-32.10,31.14,10.0,
02/07/2025,12:13:53.88,-381.35,-672.36,-574.71,0.85,-4.70,-2.85,0.90,17.40,-33.0,31.19,10.0,
02/07/2025,12:13:53.98,-334.96,-796.88,-532.23,-4.43,-0.62,-4.25,-0.15,17.85,-33.75,31.38,10.0,
02/07/2025,12:13:54.08,-266.11,-802.25,-487.79,-1.70,-12.89,-0.18,0.75,17.55,-34.65,31.19,10.0,
02/07/2025,12:13:54.18,-379.88,-780.27,-497.07,-4.08,-34.02,-9.82,2.40,17.10,-33.45,31.14,10.0,
02/07/2025,12:13:54.28,-357.91,-829.10,-484.38,0.85,2.05,0.44,3.90,17.10,-32.70,31.05,10.0,
02/07/2025,12:13:54.38,-344.73,-823.73,-458.98,0.49,10.99,-4.44,3.45,16.20,-32.25,31.48,10.0,
02/07/2025,12:13:54.48,-342.29,-813.96,-476.56,4.11,19.98,-1.92,1.05,17.55,-31.80,31.14,10.0,
02/07/2025,12:13:54.58,-346.19,-805.66,-496.09,4.45,3.40,-3.46,1.05,16.80,-32.10,31.05,10.0,
02/07/2025,12:13:54.68,-348.14,-812.50,-492.19,9.08,-15.28,-6.11,2.25,15.30,-33.15,31.14,10.0,
02/07/2025,12:13:54.78,-377.93,-815.43,-460.94,55.57,-176.46,-13.62,4.20,15.90,-31.50,31.24,10.0,
02/07/2025,12:13:54.88,-517.09,-919.43,203.13,131.25,-250.14,-60.60,18.15,7.80,-13.65,31.05,10.0,
02/07/2025,12:13:54.98,-197.27,-890.63,285.16,101.42,-157.04,-45.25,19.65,3.90,2.25,31.24,9.994,
02/07/2025,12:13:55.08,-71.78,-848.14,609.38,63.34,-116.96,-11.78,15.90,3.60,20.25,31.38,9.994,
02/07/2025,12:13:55.18,-33.69,-794.92,613.77,22.62,-34.51,-50.81,10.95,5.10,31.50,31.05,9.994,
02/07/2025,12:13:55.28,-17.58,-764.16,341.31,18.55,32.60,-28.51,10.80,3.75,32.40,31.14,9.994,
02/07/2025,12:13:55.39,21.00,-739.75,695.80,43.34,-53.27,-10.41,9.15,4.35,32.25,31.24,9.994,
02/07/2025,12:13:55.49,128.42,-701.17,642.58,20.05,-139.59,-36.73,3.90,3.90,38.85,31.00,9.994,
02/07/2025,12:13:55.59,375.49,-719.73,588.38,-22.83,-85.21,-15.33,-3.90,3.15,41.40,31.38,9.994,
02/07/2025,12:13:55.69,477.05,-747.07,482.42,-12.98,-77.56,-0.02,-8.40,2.40,42.90,31.05,9.994,
02/07/2025,12:13:55.79,585.45,-726.07,368.16,-3.45,-80.60,-21.69,-15.0,0.30,42.75,31.24,9.994,
02/07/2025,12:13:55.89,583.01,-716.80,357.91,1.09,-58.22,4.56,-19.80,1.50,41.55,31.38,9.995,
02/07/2025,12:13:55.99,609.38,-720.21,341.31,-3.18,-35.08,-13.66,-21.30,1.80,43.50,31.14,9.995,
02/07/2025,12:13:56.09,647.46,-712.89,280.27,-4.56,-34.27,-7.18,-22.65,1.20,41.85,31.38,9.995,
02/07/2025,12:13:56.19,657.23,-732.91,220.21,-7.99,-28.06,-6.37,-23.25,-0.30,41.25,31.48,9.995,
02/07/2025,12:13:56.29,689.45,-743.65,189.45,-8.82,-37.74,-16.40,-26.70,0.90,40.65,31.19,9.995,
02/07/2025,12:13:56.39,717.77,-713.87,115.23,-4.73,-23.19,-6.44,-29.55,0.0,40.95,31.38,9.995,
02/07/2025,12:13:56.49,698.24,-689.45,103.03,-5.95,-16.82,-9.79,-29.70,0.45,38.55,31.53,9.995,
02/07/2025,12:13:56.59,740.23,-687.99,98.14,4.39,-5.08,-0.85,-30.90,-0.45,39.30,30.95,9.995,
02/07/2025,12:13:56.69,713.38,-693.85,118.65,4.13,8.35,-0.63,-31.80,1.05,41.55,31.34,9.989,
02/07/2025,12:13:56.79,710.94,-684.57,151.86,1.26,18.22,5.03,-29.55,0.30,40.95,31.19,9.990,
02/07/2025,12:13:56.89,717.77,-642.09,60.55,-10.50,64.94,15.75,-28.50,0.75,40.20,31.19,9.990,
02/07/2025,12:13:57.00,745.12,-802.25,164.06,-40.31,-30.63,-3.98,-25.65,-2.85,38.85,31.48,9.990,
02/07/2025,12:13:57.10,642.09,-655.76,34.67,-95.56,-1.37,-73.63,-27.75,-3.75,35.10,31.24,9.990,
02/07/2025,12:13:57.20,719.24,-734.86,104.00,-5.33,42.49,30.69,-28.65,-4.35,33.0,31.24,9.990,
02/07/2025,12:13:57.30,730.47,-724.12,62.50,4.33,-7.42,5.11,-28.65,-3.90,33.0,31.19,9.990,
02/07/2025,12:13:57.40,666.99,-759.77,-13.67,5.45,12.74,5.81,-27.75,-4.95,32.40,31.67,9.990,
02/07/2025,12:13:57.50,670.90,-741.70,58.59,4.79,8.0,3.11,-25.80,-5.70,35.10,31.24,9.990,
02/07/2025,12:13:57.60,677.73,-743.65,73.73,-0.34,-8.65,-4.37,-27.15,-4.35,35.25,31.34,9.990,
02/07/2025,12:13:57.70,684.08,-732.42,75.68,-7.69,-4.67,-2.08,-26.55,-5.70,35.10,31.19,9.990,
02/07/2025,12:13:57.80,660.64,-745.61,22.95,-6.26,-14.76,-6.23,-26.25,-4.95,32.85,31.19,9.990,
02/07/2025,12:13:57.90,704.59,-721.19,0.49,-12.31,-10.31,-14.83,-28.95,-5.55,31.20,31.48,9.990,
02/07/2025,12:13:58.00,744.63,-693.85,-33.69,-10.66,-7.39,-5.88,-29.40,-3.90,31.20,31.34,9.990,
02/07/2025,12:13:58.10,749.02,-681.64,-58.59,-6.82,-11.31,-8.90,-33.0,-4.20,28.05,31.00,9.990,
02/07/2025,12:13:58.20,720.21,-687.99,-61.04,-4.08,4.11,-1.01,-32.70,-5.55,29.70,31.38,9.990,
02/07/2025,12:13:58.30,719.24,-689.45,-72.27,-1.54,0.24,-1.06,-33.0,-5.70,28.05,31.14,9.985,
02/07/2025,12:13:58.40,729.98,-690.92,-75.68,-3.77,-2.08,-0.53,-33.45,-5.85,27.15,31.24,9.986,
02/07/2025,12:13:58.50,739.75,-697.75,-66.41,2.05,1.37,-2.13,-33.30,-5.70,27.75,31.48,9.986,
02/07/2025,12:13:58.60,736.33,-688.48,-56.15,-2.19,-2.56,3.27,-34.20,-6.60,27.60,31.48,9.986,
02/07/2025,12:13:58.71,715.82,-677.25,-75.68,-4.75,6.26,2.99,-31.50,-4.95,29.25,31.14,9.986,
02/07/2025,12:13:58.81,714.84,-701.66,-59.57,-6.28,5.98,13.34,-31.65,-5.10,27.90,31.19,9.986,
02/07/2025,12:13:58.91,672.36,-726.56,-94.24,-6.63,-16.89,26.48,-30.45,-7.35,27.60,31.34,9.986,
02/07/2025,12:13:59.01,636.23,-744.63,-142.09,6.35,-20.89,2.11,-29.70,-7.35,26.85,31.14,9.986,
02/07/2025,12:13:59.11,604.00,-752.44,-108.89,8.85,-33.33,8.12,-28.80,-6.45,26.25,31.58,9.986,
02/07/2025,12:13:59.21,628.91,-731.93,-141.11,21.79,-31.07,-16.20,-28.95,-5.55,28.65,31.38,9.986,
02/07/2025,12:13:59.31,636.72,-752.93,-193.85,21.47,-43.72,-19.04,-31.80,-5.70,28.50,31.14,9.986,
02/07/2025,12:13:59.41,622.56,-680.18,-232.42,-16.40,-32.02,-22.39,-35.70,-3.60,27.15,31.53,9.986,
02/07/2025,12:13:59.51,693.85,-724.61,-235.35,-21.82,-7.0,12.13,-36.90,-3.15,26.10,31.53,9.986,
02/07/2025,12:13:59.61,679.69,-673.34,-259.28,10.38,5.20,5.11,-39.15,-4.35,24.60,31.34,9.986,
02/07/2025,12:13:59.71,714.36,-666.99,-224.12,12.37,1.54,-6.40,-38.25,-2.55,26.55,31.58,9.986,
02/07/2025,12:13:59.81,706.54,-699.22,-195.80,7.94,-13.56,9.44,-37.20,-1.65,28.20,31.24,9.986,
02/07/2025,12:13:59.91,689.45,-689.45,-197.75,4.20,-13.58,1.74,-38.55,-3.75,27.75,31.38,9.987,
02/07/2025,12:14:00.01,569.82,-705.57,-98.63,9.15,110.60,-5.05,-37.65,-2.85,26.40,31.38,9.982,
02/07/2025,12:14:00.11,709.47,-729.00,208.98,-15.26,81.56,15.18,-30.30,-1.80,33.60,31.19,9.982,
02/07/2025,12:14:00.21,513.67,-741.21,83.50,-16.03,-7.11,4.97,-29.25,-3.0,35.10,31.48,9.982,
02/07/2025,12:14:00.32,780.76,-705.57,13.18,-14.66,0.29,-0.70,-29.70,-2.40,34.05,31.67,9.982,
02/07/2025,12:14:00.42,674.80,-837.89,-91.31,4.12,-52.69,26.40,-30.0,-4.95,32.85,31.53,9.982,
02/07/2025,12:14:00.52,624.51,-796.39,-42.48,-18.73,-45.43,7.71,-31.05,-3.45,29.85,31.67,9.982,
02/07/2025,12:14:00.62,611.33,-750.49,-138.67,-6.09,-48.58,-13.68,-30.75,-3.45,27.0,31.58,9.983,
02/07/2025,12:14:00.72,647.46,-777.83,-163.09,-6.68,-23.42,-9.98,-31.80,-4.20,25.20,31.24,9.983,
02/07/2025,12:14:00.82,654.30,-746.58,-208.50,6.95,-37.98,-28.85,-34.20,-3.90,26.40,31.67,9.983,
02/07/2025,12:14:00.92,694.82,-715.82,-300.78,-14.07,-27.94,-25.40,-39.0,-3.0,24.75,31.38,9.983,
02/07/2025,12:14:01.02,649.90,-666.99,-282.71,-10.32,-35.11,-4.94,-40.20,-3.60,22.80,31.24,9.983,
02/07/2025,12:14:01.12,670.90,-650.39,-353.52,-9.42,-10.95,-1.73,-40.50,-3.45,22.20,31.53,9.983,
02/07/2025,12:14:01.22,652.34,-641.60,-388.18,-3.15,-1.81,4.60,-41.25,-2.25,19.65,31.53,9.983,
02/07/2025,12:14:01.32,635.25,-662.60,-391.11,5.30,9.72,17.71,-40.50,-3.0,20.10,31.38,9.983,
02/07/2025,12:14:01.42,575.68,-721.68,-433.11,-26.86,5.82,54.96,-37.65,-4.35,17.25,31.24,9.983,
02/07/2025,12:14:01.52,702.15,-744.63,-625.49,-5.44,61.34,14.31,-35.55,-7.20,18.15,31.48,9.983,
02/07/2025,12:14:01.62,507.32,-713.38,-328.61,1.88,33.63,22.24,-33.75,-7.20,19.35,31.14,9.979,
02/07/2025,12:14:01.72,625.98,-609.86,-263.18,-20.09,34.82,9.03,-34.80,-6.45,20.40,31.53,9.979,
02/07/2025,12:14:01.82,566.89,-775.88,-329.10,1.95,4.18,-1.67,-33.15,-6.30,20.25,31.58,9.979,
02/07/2025,12:14:01.92,566.41,-779.30,-334.96,11.65,2.19,12.23,-34.80,-7.20,20.40,31.53,9.979,
02/07/2025,12:14:02.03,595.21,-808.59,-361.82,38.37,-4.04,1.27,-31.50,-6.45,22.20,31.86,9.979,
02/07/2025,12:14:02.13,524.41,-799.32,-258.30,19.70,-3.74,26.39,-31.05,-6.90,23.40,31.53,9.980,
02/07/2025,12:14:02.23,513.67,-825.68,-235.35,16.16,-1.56,12.82,-32.40,-6.60,24.60,31.24,9.980,
02/07/2025,12:14:02.33,499.51,-853.03,-208.01,19.56,1.63,13.87,-29.55,-5.70,26.25,31.48,9.980,
02/07/2025,12:14:02.43,480.47,-875.98,-178.22,32.14,22.54,5.59,-27.75,-6.15,26.25,31.67,9.980,
02/07/2025,12:14:02.53,483.40,-838.38,-98.14,7.44,21.85,5.78,-27.30,-3.75,30.60,31.58,9.980,
02/07/2025,12:14:02.63,477.05,-879.88,-112.79,-6.50,-2.67,3.76,-24.90,-5.55,29.40,31.72,9.980,
02/07/2025,12:14:02.73,428.71,-878.91,-112.79,3.50,-2.24,4.39,-27.0,-6.15,30.30,31.67,9.980,
02/07/2025,12:14:02.83,428.22,-885.25,-111.82,2.85,3.61,3.80,-26.70,-5.10,30.45,31.91,9.980,
02/07/2025,12:14:02.93,433.59,-852.54,-105.96,2.24,5.59,-5.03,-25.50,-4.95,29.85,31.86,9.980,
02/07/2025,12:14:03.03,492.19,-888.18,-108.89,-1.58,-2.26,0.63,-24.45,-5.10,30.45,31.67,9.980,
02/07/2025,12:14:03.13,453.13,-883.30,-106.93,-0.61,-1.86,-0.56,-25.65,-3.60,30.15,31.72,9.980,
02/07/2025,12:14:03.23,440.92,-889.65,-94.73,0.45,-3.60,0.51,-25.20,-5.55,31.20,31.72,9.980,
02/07/2025,12:14:03.33,428.22,-871.58,-81.05,-1.08,-4.02,1.10,-25.80,-4.50,29.55,31.53,9.977,
02/07/2025,12:14:03.43,446.29,-904.79,-98.63,-3.34,-1.56,-6.92,-25.50,-4.95,30.60,31.86,9.977,
02/07/2025,12:14:03.53,441.41,-923.83,-90.82,-1.53,1.74,-4.67,-25.95,-5.10,30.15,31.91,9.977,
02/07/2025,12:14:03.63,478.03,-887.70,-131.84,-2.11,1.25,1.05,-27.75,-4.50,29.85,31.77,9.977,
02/07/2025,12:14:03.74,653.81,-815.92,-305.66,80.89,-8.95,-80.56,-28.05,-5.70,29.55,31.91,9.977,
02/07/2025,12:14:03.84,459.47,-900.88,-95.21,-2.20,0.07,-1.47,-27.15,-5.55,29.70,31.91,9.977,
02/07/2025,12:14:03.94,459.96,-892.58,-85.45,1.11,1.98,0.24,-26.40,-5.10,29.70,32.20,9.977,
02/07/2025,12:14:04.04,459.96,-900.39,-90.82,5.41,8.82,1.99,-26.25,-5.25,30.60,32.10,9.977,
02/07/2025,12:14:04.14,447.27,-885.25,-100.10,-0.79,13.21,1.33,-24.15,-5.10,31.95,32.25,9.977,
02/07/2025,12:14:04.24,457.03,-923.34,-92.77,2.45,5.11,2.02,-25.95,-6.60,30.45,31.67,9.977,
02/07/2025,12:14:04.34,459.47,-887.70,-87.40,1.24,10.39,-3.88,-24.90,-5.55,32.70,32.10,9.977,
02/07/2025,12:14:04.44,439.45,-887.21,-69.82,6.40,5.19,9.15,-23.70,-5.85,31.95,31.91,9.978,
02/07/2025,12:14:04.54,447.27,-904.79,-71.78,-6.17,-11.50,3.43,-22.50,-6.15,32.10,32.01,9.978,
02/07/2025,12:14:04.64,431.64,-928.22,-104.49,-4.57,-34.18,7.56,-23.55,-5.70,30.30,31.91,9.978,
02/07/2025,12:14:04.74,388.18,-925.78,-104.98,-2.74,16.29,-2.18,-25.50,-5.25,30.60,31.91,9.978,
02/07/2025,12:14:04.84,395.51,-906.25,-40.04,-0.48,-0.47,0.28,-23.40,-5.55,32.25,31.86,9.978,
02/07/2025,12:14:04.94,429.69,-928.22,-104.49,-0.94,7.85,1.93,-24.0,-4.50,31.05,32.25,9.978,
02/07/2025,12:14:05.04,400.88,-908.69,-75.68,-0.70,7.63,4.50,-23.70,-5.55,29.70,32.25,9.974,
02/07/2025,12:14:05.14,361.82,-915.53,-77.64,-12.47,2.36,3.51,-23.55,-4.20,31.80,32.01,9.975,
02/07/2025,12:14:05.24,412.60,-928.71,-98.63,4.08,4.04,-6.0,-23.55,-4.95,30.60,32.25,9.975,
02/07/2025,12:14:05.34,422.85,-931.15,-87.40,-0.11,2.54,-0.33,-24.30,-5.70,30.30,32.10,9.975,
02/07/2025,12:14:05.45,404.30,-917.48,-84.47,0.62,3.31,-4.09,-23.55,-5.25,30.60,32.01,9.975,
02/07/2025,12:14:05.55,416.99,-923.34,-70.80,-2.36,7.44,-4.90,-22.95,-5.10,30.45,32.10,9.975,
02/07/2025,12:14:05.65,583.98,-963.87,-45.41,-2.76,8.47,14.33,-22.65,-6.60,31.95,32.10,9.975,
02/07/2025,12:14:05.75,421.39,-897.95,-82.52,0.77,9.56,-10.21,-22.95,-5.55,30.75,32.10,9.975,
02/07/2025,12:14:05.85,430.18,-905.76,-98.14,-3.29,4.36,-5.31,-23.40,-3.90,31.20,32.10,9.975,
02/07/2025,12:14:05.95,410.64,-890.14,-69.82,1.09,6.63,-2.71,-23.55,-6.45,31.05,32.25,9.975,
02/07/2025,12:14:06.05,444.82,-917.48,-92.29,0.92,14.86,-4.73,-24.45,-4.80,31.50,31.86,9.975,
02/07/2025,12:14:06.15,410.16,-907.23,-55.66,2.24,-3.32,-3.14,-23.55,-5.70,31.05,32.06,9.975,
02/07/2025,12:14:06.25,403.81,-941.41,-70.80,-4.35,0.22,-14.36,-23.55,-6.15,31.80,32.25,9.975,
02/07/2025,12:14:06.35,301.76,-979.49,-29.79,-13.30,-29.95,143.37,-23.40,-4.80,33.45,32.01,9.976,
02/07/2025,12:14:06.45,405.76,-912.11,-41.99,-2.31,-26.16,6.91,-22.80,-4.95,31.80,31.86,9.976,
02/07/2025,12:14:06.55,352.05,-948.24,-107.42,14.69,-14.05,5.63,-21.45,-5.55,31.20,32.10,9.976,
02/07/2025,12:14:06.65,367.19,-927.73,-34.18,4.99,16.45,-12.69,-22.20,-3.90,33.0,32.10,9.972,
02/07/2025,12:14:06.75,396.00,-920.90,-41.50,3.14,7.12,1.60,-21.90,-5.55,31.95,32.25,9.972,
02/07/2025,12:14:06.85,346.19,-926.27,-35.64,1.37,6.50,-8.46,-21.45,-5.85,32.25,32.20,9.973,
02/07/2025,12:14:06.95,372.07,-932.62,-43.95,-2.66,-1.39,-5.11,-21.45,-3.15,32.25,32.06,9.973,
02/07/2025,12:14:07.06,360.35,-925.78,-57.62,-2.98,1.01,0.90,-22.05,-5.25,31.80,32.29,9.973,
02/07/2025,12:14:07.16,378.91,-939.45,-57.13,0.95,-0.81,4.23,-21.30,-4.95,31.80,32.10,9.973,
02/07/2025,12:14:07.26,365.23,-931.64,-70.80,0.79,-2.45,1.85,-21.0,-4.50,31.80,31.91,9.973,
02/07/2025,12:14:07.36,392.09,-923.34,-63.96,-3.74,-2.31,1.48,-21.45,-5.10,31.20,32.44,9.973,
02/07/2025,12:14:07.46,366.70,-944.82,-78.61,-2.28,-0.05,-0.91,-21.30,-5.70,30.60,32.25,9.973,
02/07/2025,12:14:07.56,376.46,-943.85,-75.20,1.66,-2.24,4.48,-21.0,-4.95,30.60,32.20,9.973,
02/07/2025,12:14:07.66,363.77,-925.78,-78.13,3.45,-3.31,1.71,-20.55,-5.25,30.30,32.10,9.973,
02/07/2025,12:14:07.76,360.35,-930.66,-46.39,-1.65,-2.79,-3.30,-22.95,-6.30,30.15,32.29,9.973,
02/07/2025,12:14:07.86,367.68,-939.45,-41.99,0.22,0.79,2.92,-21.90,-6.60,31.20,32.39,9.973,
02/07/2025,12:14:07.96,360.35,-942.87,-41.50,-1.46,-1.40,0.50,-22.80,-4.20,31.05,32.73,9.974,
02/07/2025,12:14:08.06,354.00,-943.36,-31.25,-1.17,-6.43,1.28,-22.65,-6.60,30.15,32.77,9.974,
02/07/2025,12:14:08.16,326.17,-946.29,-45.41,0.10,-2.99,0.25,-22.50,-4.50,30.60,32.92,9.974,
02/07/2025,12:14:08.26,351.56,-938.48,-47.85,0.19,-3.31,0.05,-21.0,-4.95,30.60,33.11,9.971,
02/07/2025,12:14:08.36,343.26,-942.87,-61.52,0.20,-2.25,0.44,-21.90,-3.90,29.70,33.11,9.971,
02/07/2025,12:14:08.46,347.17,-942.38,-62.99,0.63,-3.74,-1.0,-22.20,-4.80,31.20,33.30,9.971,
02/07/2025,12:14:08.56,346.19,-939.45,-66.89,-0.85,-4.89,-0.39,-22.65,-4.80,30.75,33.25,9.971,
02/07/2025,12:14:08.67,342.77,-939.45,-72.27,-0.38,-5.91,1.70,-22.65,-4.35,28.95,33.30,9.971,
02/07/2025,12:14:08.77,357.91,-958.50,-79.59,-0.21,-4.51,-1.77,-24.90,-3.60,29.70,33.30,9.971,
02/07/2025,12:14:08.87,347.66,-932.62,-75.20,-1.38,-1.50,-0.79,-22.65,-3.60,30.15,32.97,9.971,
