rtcDate,rtcTime,aX,aY,aZ,gX,gY,gZ,mX,mY,mZ,imu_degC,output_Hz,
02/07/2025,12:25:31.10,-178.71,-568.36,-778.81,0.50,3.49,-2.67,15.75,25.80,-42.90,32.92,0.0,
02/07/2025,12:25:31.20,-171.88,-561.52,-764.65,1.28,-0.95,-0.83,14.10,24.75,-42.0,32.77,20.0,
02/07/2025,12:25:31.30,-175.29,-567.87,-776.37,3.11,0.62,-1.51,14.40,24.45,-42.75,33.06,15.0,
02/07/2025,12:25:31.40,-184.57,-571.29,-781.74,2.28,5.55,-2.98,15.60,26.25,-42.75,32.77,13.333,
02/07/2025,12:25:31.50,-166.50,-586.91,-777.83,2.89,-2.20,-0.21,15.90,25.50,-43.05,32.97,12.500,
02/07/2025,12:25:31.60,-169.92,-565.92,-774.90,2.47,2.86,-2.47,15.90,25.20,-43.05,32.44,12.0,
02/07/2025,12:25:31.70,-158.20,-580.08,-783.69,1.27,3.76,0.17,14.10,24.75,-43.05,33.06,11.667,
02/07/2025,12:25:31.80,-154.30,-563.96,-771.48,1.71,1.56,-1.60,15.45,25.05,-42.15,32.92,11.429,
02/07/2025,12:25:31.90,-173.34,-583.50,-767.09,0.51,-0.79,-2.04,14.25,24.60,-42.45,32.77,11.250,
02/07/2025,12:25:32.00,-153.81,-583.01,-781.25,1.80,-0.88,-1.53,15.45,25.05,-43.20,32.73,10.989,
02/07/2025,12:25:32.10,-168.46,-568.85,-768.55,2.91,5.03,0.30,14.25,25.05,-42.15,32.77,10.891,
02/07/2025,12:25:32.20,-146.00,-583.50,-778.81,1.75,1.51,-0.50,14.25,23.85,-42.90,33.06,10.811,
02/07/2025,12:25:32.31,-148.44,-564.94,-761.23,1.64,4.26,0.24,14.10,23.70,-43.05,33.25,10.744,
02/07/2025,12:25:32.41,-162.11,-586.43,-791.02,0.93,-0.02,-0.46,15.0,23.40,-43.95,33.06,10.687,
02/07/2025,12:25:32.51,-152.83,-597.66,-768.55,5.85,4.83,-4.53,13.65,23.70,-42.30,32.97,10.638,
02/07/2025,12:25:32.61,-140.14,-576.17,-752.93,2.84,3.78,-3.91,15.90,24.0,-42.75,33.16,10.596,
02/07/2025,12:25:32.71,-140.14,-611.33,-778.81,1.71,2.37,-4.77,14.10,22.50,-44.10,33.06,10.559,
02/07/2025,12:25:32.81,-134.28,-594.73,-756.84,6.27,6.05,-0.15,12.60,22.50,-43.80,33.16,10.526,
02/07/2025,12:25:32.91,-144.04,-592.77,-738.28,1.43,-14.60,-3.95,12.75,23.85,-42.15,32.92,10.497,
02/07/2025,12:25:33.01,-131.84,-640.14,-769.53,2.64,1.58,-3.35,15.75,23.10,-43.20,33.11,10.471,
02/07/2025,12:25:33.11,-133.30,-617.68,-760.25,2.28,0.01,-4.23,13.65,21.0,-43.05,32.97,10.448,
02/07/2025,12:25:33.21,-133.30,-605.47,-741.70,0.16,0.05,5.13,13.65,21.75,-42.30,33.11,10.427,
02/07/2025,12:25:33.31,-144.53,-615.72,-738.77,0.73,3.75,1.64,13.20,22.35,-41.85,33.11,10.407,
02/07/2025,12:25:33.41,-142.58,-613.77,-759.28,0.08,-1.0,-2.31,15.15,22.50,-43.05,32.82,10.345,
02/07/2025,12:25:33.51,-145.51,-620.12,-755.86,-1.08,-0.64,0.31,14.85,22.20,-43.35,33.11,10.331,
02/07/2025,12:25:33.61,-156.25,-619.63,-758.30,-2.44,-6.47,0.20,15.90,22.95,-42.30,32.92,10.317,
02/07/2025,12:25:33.71,-106.45,-650.39,-945.80,4.53,7.14,1.82,15.45,23.10,-42.15,32.82,10.305,
02/07/2025,12:25:33.82,-167.48,-594.24,-751.46,-0.32,-1.98,0.85,14.70,22.35,-43.20,32.92,10.294,
02/07/2025,12:25:33.92,-145.02,-617.68,-761.72,-0.86,2.60,-0.95,14.40,20.25,-43.05,33.06,10.284,
02/07/2025,12:25:34.02,-148.93,-606.45,-764.16,-0.53,-2.40,-2.11,15.75,22.65,-43.20,33.30,10.274,
02/07/2025,12:25:34.12,-153.81,-620.61,-765.63,0.20,-0.83,-3.64,13.65,21.75,-43.80,33.11,10.265,
02/07/2025,12:25:34.22,-163.09,-610.84,-758.79,1.39,1.24,-2.64,16.05,22.65,-42.15,33.16,10.256,
02/07/2025,12:25:34.32,-148.93,-610.35,-769.04,-0.81,-2.31,0.66,15.45,23.40,-42.90,33.25,10.248,
02/07/2025,12:25:34.42,-162.60,-609.86,-752.93,-1.08,-5.09,-3.36,15.90,22.20,-42.30,33.25,10.241,
02/07/2025,12:25:34.52,-179.69,-587.89,-763.18,-0.90,-3.05,-1.36,16.50,23.40,-42.90,33.16,10.234,
02/07/2025,12:25:34.62,-182.13,-555.66,-773.44,7.84,7.64,0.81,15.60,21.75,-42.75,33.30,10.227,
02/07/2025,12:25:34.72,-167.48,-612.79,-754.88,0.65,-2.02,-0.47,16.65,23.25,-42.0,33.25,10.221,
02/07/2025,12:25:34.82,-169.92,-602.54,-755.86,-0.89,1.87,-0.64,16.05,23.10,-42.90,33.25,10.215,
02/07/2025,12:25:34.92,-155.27,-598.14,-771.48,0.02,0.63,0.92,17.25,22.65,-41.40,33.25,10.183,
02/07/2025,12:25:35.02,-165.53,-596.19,-749.02,-0.24,-2.16,0.50,15.60,22.95,-42.0,33.11,10.178,
02/07/2025,12:25:35.12,-176.76,-602.54,-761.23,-1.47,-3.79,0.15,15.90,22.20,-42.75,33.11,10.199,
02/07/2025,12:25:35.12,-197.75,-590.33,-764.16,-0.26,-8.93,-0.87,16.80,22.65,-41.40,33.30,10.448,
02/07/2025,12:25:35.15,-200.68,-617.19,-783.20,10.66,-20.89,11.16,16.80,22.65,-42.15,33.25,10.591,
02/07/2025,12:25:35.26,-230.47,-597.17,-725.10,13.95,-3.05,-1.56,19.20,22.50,-39.75,33.49,10.577,
02/07/2025,12:25:35.36,-255.86,-625.0,-694.82,-2.32,-30.35,-6.10,20.40,22.20,-40.50,33.25,10.563,
02/07/2025,12:25:35.46,-387.70,-616.21,-888.67,16.75,-108.37,67.94,22.20,23.25,-38.70,33.49,10.550,
02/07/2025,12:25:35.56,-259.28,-552.25,-771.48,18.24,-41.15,4.19,21.75,22.50,-38.70,33.16,10.538,
02/07/2025,12:25:35.66,-321.78,-1036.13,-574.22,62.20,153.69,45.92,28.20,20.40,-32.70,33.44,10.526,
02/07/2025,12:25:35.76,-472.17,-656.25,-500.0,91.15,-99.69,40.31,32.85,18.75,-27.60,33.35,10.515,
02/07/2025,12:25:35.86,-636.72,-692.87,-195.31,71.82,-85.03,44.98,36.75,17.40,-21.60,33.44,10.504,
02/07/2025,12:25:35.96,-719.73,-604.98,1.95,75.46,-108.21,78.21,42.0,20.25,-12.75,33.30,10.494,
02/07/2025,12:25:36.06,-943.85,-421.88,347.17,46.93,-33.12,46.29,43.50,24.75,-4.50,33.35,10.484,
02/07/2025,12:25:36.16,-915.53,-512.70,163.57,11.35,35.61,16.17,44.10,26.55,-5.40,33.44,10.474,
02/07/2025,12:25:36.26,-973.63,-513.18,124.02,8.33,80.63,-9.18,43.50,27.0,-8.10,33.16,10.465,
02/07/2025,12:25:36.36,-922.36,-443.36,0.98,12.98,30.46,6.89,42.45,28.20,-13.50,33.16,10.436,
02/07/2025,12:25:36.46,-924.80,-585.94,-25.39,35.92,58.45,-13.51,42.0,27.45,-16.35,33.11,10.428,
02/07/2025,12:25:36.56,-483.40,-770.02,-207.52,-3.06,46.21,2.42,39.45,26.70,-19.65,33.06,10.420,
02/07/2025,12:25:36.67,-802.73,-493.65,-209.96,4.58,-12.86,-2.84,37.50,25.80,-25.20,33.16,10.413,
02/07/2025,12:25:36.77,-1014.16,-432.13,-125.49,0.01,4.63,-29.02,38.70,24.75,-23.25,32.97,10.406,
02/07/2025,12:25:36.87,-371.09,-459.47,-97.17,-89.95,67.10,40.79,37.05,25.35,-23.70,32.92,10.399,
02/07/2025,12:25:36.97,-796.88,-583.01,-379.88,9.89,-118.51,35.53,37.50,26.55,-28.50,32.82,10.392,
02/07/2025,12:25:37.07,-917.48,-538.57,-214.36,7.65,19.32,-11.99,39.15,27.45,-22.80,32.77,10.385,
02/07/2025,12:25:37.17,-920.41,-454.10,-245.61,8.73,48.95,-32.58,37.20,28.20,-25.05,32.82,10.379,
02/07/2025,12:25:37.27,-987.30,-527.34,-175.29,7.63,7.51,-1.05,36.60,26.70,-27.60,32.73,10.373,
02/07/2025,12:25:37.37,-815.43,-483.89,-341.80,-22.88,73.75,-2.51,34.50,28.35,-28.80,32.73,10.367,
02/07/2025,12:25:37.47,-818.36,-483.89,-409.18,-17.46,16.70,33.69,32.25,26.85,-32.10,32.73,10.361,
02/07/2025,12:25:37.57,-705.57,-488.28,-898.44,-30.63,250.13,-3.48,23.10,28.35,-41.10,32.73,10.355,
02/07/2025,12:25:37.67,-276.86,-367.19,-696.78,-31.83,151.40,10.76,2.25,30.45,-50.25,32.29,10.350,
02/07/2025,12:25:37.77,-119.63,-329.10,-655.76,66.36,49.35,33.28,-7.95,29.55,-49.05,32.44,10.329,
02/07/2025,12:25:37.87,-250.49,-534.18,-879.39,3.28,35.68,-0.04,-4.65,28.05,-49.80,32.53,10.324,
02/07/2025,12:25:37.97,-133.79,-436.04,-889.16,-10.29,19.57,2.49,-8.70,26.85,-50.40,32.58,10.320,
02/07/2025,12:25:38.07,-121.58,-435.55,-890.63,-56.60,7.08,12.16,-8.70,28.05,-48.60,32.73,10.315,
02/07/2025,12:25:38.18,50.78,-220.21,-782.23,-71.38,61.13,-10.05,-15.15,34.65,-47.10,32.58,10.311,
02/07/2025,12:25:38.28,-11.23,-221.19,-1039.55,-40.17,-8.56,-29.34,-15.75,41.25,-48.0,32.58,10.306,
02/07/2025,12:25:38.38,12.70,-137.70,-980.47,40.34,-25.71,-25.77,-15.45,43.95,-45.0,32.29,10.302,
02/07/2025,12:25:38.48,-13.67,-152.83,-931.15,-35.11,15.27,-23.23,-2.70,36.90,-48.45,32.58,10.298,
02/07/2025,12:25:38.58,-53.71,-272.95,-879.88,-12.78,-6.77,-29.56,-3.0,37.35,-48.45,32.39,10.294,
02/07/2025,12:25:38.68,-134.28,-324.71,-1005.86,-48.04,24.76,-23.11,-2.25,41.55,-46.65,32.63,10.290,
02/07/2025,12:25:38.78,-59.57,-175.78,-1029.79,-43.21,82.17,-101.44,-7.80,46.50,-44.85,32.25,10.286,
02/07/2025,12:25:38.88,72.27,74.71,-1052.73,-47.44,32.62,-92.36,-10.20,51.90,-40.65,32.39,10.283,
02/07/2025,12:25:38.98,95.21,108.89,-976.56,-16.92,26.26,-67.45,-5.70,54.45,-39.45,32.44,10.279,
02/07/2025,12:25:39.08,247.07,38.57,-946.29,22.76,96.30,-76.16,-6.15,55.80,-37.80,32.44,10.276,
02/07/2025,12:25:39.18,313.48,81.54,-944.34,24.69,62.33,-52.69,-6.90,53.85,-38.55,32.39,10.272,
02/07/2025,12:25:39.28,170.90,1023.44,-1178.71,1.21,121.29,-14.89,-12.30,52.20,-39.15,32.58,10.256,
02/07/2025,12:25:39.38,569.34,121.58,-719.24,-38.15,82.52,-0.14,-18.75,52.35,-36.75,32.44,10.253,
02/07/2025,12:25:39.48,614.26,214.36,-796.88,6.45,-63.34,-8.69,-19.05,53.85,-36.75,32.44,10.250,
02/07/2025,12:25:39.59,597.17,149.41,-764.16,-18.76,15.58,-7.82,-17.25,51.15,-38.55,32.25,10.247,
02/07/2025,12:25:39.69,533.69,146.97,-744.14,16.67,-11.96,-1.82,-17.55,52.65,-36.75,32.44,10.244,
02/07/2025,12:25:39.79,607.42,-26.37,-854.00,23.71,-50.69,5.63,-15.90,51.75,-37.95,32.44,10.242,
02/07/2025,12:25:39.89,503.42,33.20,-812.01,-5.27,21.08,-132.13,-14.10,51.75,-37.95,32.58,10.239,
02/07/2025,12:25:39.99,574.71,79.10,-819.34,-2.91,11.02,-10.29,-15.0,52.65,-36.0,32.73,10.236,
02/07/2025,12:25:40.09,607.42,116.70,-763.18,-19.41,-3.14,4.24,-16.35,53.25,-37.35,32.39,10.234,
02/07/2025,12:25:40.19,561.04,107.91,-793.46,6.96,3.71,0.31,-17.10,52.95,-35.55,32.44,10.231,
02/07/2025,12:25:40.29,649.41,76.66,-761.23,4.47,5.56,0.99,-17.40,52.50,-36.60,32.29,10.229,
02/07/2025,12:25:40.39,583.50,153.32,-754.88,7.92,-7.56,1.31,-17.55,52.65,-38.25,32.58,10.226,
02/07/2025,12:25:40.49,621.58,69.34,-765.63,6.05,-30.32,11.02,-16.65,51.0,-37.65,32.39,10.224,
02/07/2025,12:25:40.59,503.42,220.70,-795.90,-6.80,-13.05,8.0,-13.65,52.95,-38.40,32.39,10.221,
02/07/2025,12:25:40.69,502.44,26.37,-815.43,47.59,-60.43,18.08,-14.25,50.85,-37.50,32.25,10.208,
02/07/2025,12:25:40.79,459.47,137.21,-807.13,-3.48,7.54,-4.80,-11.55,50.25,-41.25,32.39,10.206,
02/07/2025,12:25:40.89,444.82,36.62,-874.02,7.21,13.21,-11.31,-10.65,47.40,-41.10,32.29,10.204,
02/07/2025,12:25:41.00,567.38,10.74,-829.10,14.33,58.21,-23.60,-12.45,50.10,-40.35,32.39,10.202,
02/07/2025,12:25:41.10,592.77,9.77,-833.98,33.68,-5.87,-5.28,-12.30,48.30,-41.25,32.44,10.200,
02/07/2025,12:25:41.20,586.91,-27.83,-828.13,-5.67,-12.26,6.66,-13.50,47.40,-42.30,32.77,10.198,
02/07/2025,12:25:41.30,534.18,49.32,-825.68,10.57,13.81,-4.69,-12.0,45.90,-42.45,32.39,10.196,
02/07/2025,12:25:41.40,608.40,-39.06,-797.85,10.68,12.51,10.91,-12.60,45.75,-44.10,32.58,10.194,
02/07/2025,12:25:41.50,624.51,-53.71,-833.01,-3.80,-0.94,2.50,-13.20,46.95,-42.45,32.73,10.192,
02/07/2025,12:25:41.60,559.08,-37.60,-791.50,19.24,15.47,-2.51,-13.65,45.75,-43.05,32.44,10.190,
02/07/2025,12:25:41.70,593.26,-34.67,-757.32,1.78,-3.72,3.69,-13.65,45.30,-43.35,32.73,10.189,
02/07/2025,12:25:41.80,493.65,26.86,-901.86,-37.67,-30.42,15.11,-11.40,48.90,-41.85,32.73,10.187,
02/07/2025,12:25:41.90,356.45,6.35,-879.88,0.14,-76.79,62.19,-8.25,48.75,-42.0,32.58,10.185,
02/07/2025,12:25:42.00,359.86,-13.18,-917.97,6.94,-32.56,26.33,-7.35,48.60,-43.95,32.58,10.183,
02/07/2025,12:25:42.10,351.56,-54.69,-935.06,4.44,-8.08,20.69,-6.90,48.15,-43.65,32.58,10.173,
02/07/2025,12:25:42.20,288.57,-65.92,-967.29,3.22,-3.60,14.03,-4.95,48.75,-43.80,32.58,10.171,
02/07/2025,12:25:42.30,314.45,-59.08,-921.88,2.63,1.97,5.85,-5.10,49.65,-44.25,32.82,10.169,
02/07/2025,12:25:42.40,271.97,-82.52,-925.78,3.13,2.29,15.63,-6.30,48.0,-43.35,32.63,10.168,
02/07/2025,12:25:42.51,335.45,-88.38,-893.55,18.29,-15.24,35.27,-6.0,46.80,-44.85,32.58,10.167,
02/07/2025,12:25:42.61,293.95,-150.39,-943.85,2.79,-29.24,10.68,-6.0,45.30,-44.85,32.58,10.165,
02/07/2025,12:25:42.71,275.39,-152.34,-934.08,6.31,-2.99,-15.02,-3.90,45.15,-45.45,32.73,10.164,
02/07/2025,12:25:42.81,312.01,-139.16,-947.75,17.35,-8.63,-9.21,-4.20,45.75,-45.15,32.58,10.162,
02/07/2025,12:25:42.91,217.77,-145.51,-965.82,10.71,13.17,-13.83,-4.20,44.85,-45.60,32.58,10.161,
02/07/2025,12:25:43.01,250.98,-172.85,-962.89,-1.83,3.83,-3.22,-4.20,44.10,-45.60,32.73,10.160,
02/07/2025,12:25:43.11,297.85,-182.62,-953.13,-16.31,1.85,8.40,-6.75,44.10,-44.55,32.63,10.158,
02/07/2025,12:25:43.21,246.58,-173.83,-943.36,-19.73,-8.44,22.15,-6.0,45.30,-44.55,32.58,10.157,
02/07/2025,12:25:43.31,231.93,-117.68,-919.43,-15.80,-21.71,73.25,-8.25,46.05,-44.85,32.73,10.156,
02/07/2025,12:25:43.41,279.30,-185.06,-981.93,1.31,-14.86,60.15,-7.80,46.80,-45.15,32.44,10.154,
02/07/2025,12:25:43.51,215.82,2.93,-992.68,-13.29,-24.03,45.64,-7.65,52.65,-41.10,32.39,10.145,
02/07/2025,12:25:43.61,253.91,-148.44,-952.64,-15.68,32.69,18.34,-9.0,49.50,-43.80,32.39,10.144,
02/07/2025,12:25:43.71,225.59,-77.15,-928.71,7.63,7.82,17.14,-10.95,50.40,-41.40,32.58,10.143,
02/07/2025,12:25:43.82,125.98,-29.30,-1099.12,-22.88,89.77,72.98,-9.30,48.0,-43.05,32.73,10.142,
02/07/2025,12:25:43.92,217.77,-125.0,-966.31,11.96,-20.18,25.81,-15.0,48.15,-42.75,32.73,10.140,
02/07/2025,12:25:44.02,125.49,-132.81,-1042.48,-6.37,-11.27,-8.96,-13.65,48.0,-41.55,32.58,10.139,
02/07/2025,12:25:44.12,289.06,-127.44,-979.98,12.82,-35.37,-42.73,-12.60,47.25,-42.75,32.73,10.138,
02/07/2025,12:25:44.22,245.61,-145.02,-932.13,12.94,40.95,-22.06,-11.55,47.55,-44.55,32.58,10.137,
02/07/2025,12:25:44.32,222.17,-164.06,-946.29,0.43,-56.40,12.48,-10.65,46.65,-44.70,32.53,10.136,
02/07/2025,12:25:44.42,26.37,-142.58,-924.80,9.40,-19.60,11.76,-7.35,45.45,-47.25,32.58,10.135,
02/07/2025,12:25:44.52,88.87,-223.63,-955.57,8.85,-22.21,13.11,-4.20,42.30,-49.50,32.77,10.134,
02/07/2025,12:25:44.62,3.91,-259.77,-998.54,-33.10,-11.50,29.41,-1.80,42.45,-50.85,32.77,10.133,
02/07/2025,12:25:44.72,-17.58,-202.15,-1010.74,-8.93,-6.16,14.01,-4.35,44.70,-50.85,32.97,10.132,
02/07/2025,12:25:44.82,28.81,-220.21,-1022.95,17.44,14.59,-14.45,-3.90,43.20,-49.80,32.58,10.131,
02/07/2025,12:25:44.92,46.88,-152.34,-965.33,12.02,32.43,-18.35,-4.65,42.90,-51.15,32.82,10.130,
02/07/2025,12:25:45.02,120.61,-220.21,-941.41,-36.41,-21.72,14.20,-6.75,42.30,-50.25,32.63,10.122,
02/07/2025,12:25:45.12,17.09,-158.69,-918.46,-16.34,-15.95,24.16,-4.50,44.10,-49.50,32.53,10.121,
02/07/2025,12:25:45.22,-47.85,-164.06,-1019.53,-3.24,-2.49,0.56,-4.95,45.75,-48.45,32.39,10.120,
02/07/2025,12:25:45.33,48.34,-892.09,-1518.07,-153.02,-213.35,131.59,-5.70,49.80,-43.35,32.97,10.119,
02/07/2025,12:25:45.43,-312.50,142.09,-921.39,22.74,5.22,5.45,1.35,52.35,-41.85,32.73,10.119,
02/07/2025,12:25:45.53,-132.81,-24.90,-1033.69,39.26,139.85,-37.85,-1.35,51.15,-41.85,32.63,10.118,
02/07/2025,12:25:45.63,196.78,-219.73,-993.16,22.02,99.46,-68.22,-8.55,51.0,-43.05,32.82,10.117,
02/07/2025,12:25:45.73,240.23,-197.27,-1033.69,61.15,72.05,-53.11,-14.10,47.25,-44.10,32.73,10.116,
02/07/2025,12:25:45.83,369.63,-209.47,-916.02,33.27,49.66,-61.89,-14.40,43.35,-45.60,32.92,10.115,
02/07/2025,12:25:45.93,334.96,-273.44,-858.89,38.69,18.77,-17.63,-16.65,40.80,-45.15,32.63,10.115,
02/07/2025,12:25:46.03,574.22,-383.30,-677.73,62.11,46.05,-6.78,-18.45,37.35,-43.35,32.58,10.114,
02/07/2025,12:25:46.13,501.95,-316.89,-806.64,23.23,15.82,-3.40,-19.95,35.10,-43.80,32.92,10.113,
02/07/2025,12:25:46.23,497.56,-338.87,-743.16,-15.93,-11.93,8.65,-19.65,35.85,-44.10,32.82,10.112,
02/07/2025,12:25:46.33,478.52,-308.11,-820.80,8.0,1.39,-3.29,-18.30,37.95,-44.25,33.06,10.105,
02/07/2025,12:25:46.43,437.01,-309.57,-845.21,9.98,-2.98,1.63,-17.40,36.60,-45.15,32.73,10.104,
02/07/2025,12:25:46.53,411.13,-302.73,-977.54,51.44,32.40,-23.28,-17.10,35.40,-44.55,32.73,10.104,
02/07/2025,12:25:46.63,516.11,-437.01,-731.45,29.30,4.96,8.64,-22.05,30.75,-45.45,32.73,10.103,
02/07/2025,12:25:46.74,452.64,-483.89,-729.49,32.25,15.76,19.08,-22.50,27.90,-42.75,32.73,10.102,
02/07/2025,12:25:46.84,479.00,-485.35,-731.93,13.87,2.82,14.96,-22.50,23.70,-44.10,32.77,10.102,
02/07/2025,12:25:46.94,552.25,-545.90,-615.23,44.92,26.36,7.80,-23.70,21.0,-44.10,32.92,10.101,
02/07/2025,12:25:47.04,371.58,-616.70,-541.99,12.59,-24.36,28.76,-24.75,18.30,-43.35,32.77,10.100,
02/07/2025,12:25:47.14,495.61,-671.88,-630.37,6.58,-6.99,-6.55,-22.20,17.25,-44.85,32.63,10.100,
02/07/2025,12:25:47.24,476.07,-653.32,-582.52,-1.55,9.66,14.29,-22.20,16.50,-43.35,32.77,10.099,
02/07/2025,12:25:47.34,456.54,-684.57,-629.88,-15.94,9.29,7.13,-23.55,16.95,-44.25,32.82,10.099,
02/07/2025,12:25:47.44,478.52,-604.49,-608.89,10.52,8.39,-16.39,-24.0,18.0,-43.35,32.82,10.098,
02/07/2025,12:25:47.54,489.26,-651.37,-561.04,-1.95,2.18,2.43,-23.25,15.30,-43.05,33.11,10.097,
02/07/2025,12:25:47.64,477.54,-641.11,-578.13,0.67,-3.55,-4.80,-25.20,17.25,-42.0,33.16,10.097,
02/07/2025,12:25:47.74,496.09,-617.68,-569.82,2.73,-1.17,-2.05,-24.75,19.05,-43.05,33.30,10.090,
02/07/2025,12:25:47.84,500.0,-631.84,-563.96,10.73,6.98,-4.03,-22.95,18.75,-43.05,33.25,10.090,
02/07/2025,12:25:47.94,520.51,-648.93,-578.61,0.48,0.0,-1.92,-25.50,17.25,-42.30,33.35,10.089,
02/07/2025,12:25:48.05,515.63,-643.55,-559.57,-5.18,-2.17,-2.79,-24.15,15.15,-44.70,33.30,10.088,
