rtcDate,rtcTime,aX,aY,aZ,gX,gY,gZ,mX,mY,mZ,imu_degC,output_Hz,
02/07/2025,12:25:49.69,-89.36,928.22,-325.20,-43.53,15.94,53.56,-30.15,70.50,-9.30,33.11,100.0,
02/07/2025,12:25:49.80,125.98,878.42,-392.09,33.59,-39.85,41.71,-35.10,68.10,-10.50,33.30,18.182,
02/07/2025,12:25:49.90,205.57,873.54,-559.57,22.41,-10.81,27.23,-37.95,65.40,-16.05,33.16,14.286,
02/07/2025,12:25:50.00,64.94,865.72,-574.22,48.84,-38.83,48.43,-37.80,62.55,-20.10,33.11,12.903,
02/07/2025,12:25:50.10,-2.93,769.53,-483.89,-50.48,15.72,35.67,-38.40,61.65,-21.45,33.16,12.195,
02/07/2025,12:25:50.20,188.96,770.02,-537.11,-5.20,39.42,8.92,-40.95,61.20,-18.45,33.25,11.765,
02/07/2025,12:25:50.30,182.62,811.04,-474.61,-0.02,-10.85,8.33,-39.90,62.70,-16.65,33.06,11.475,
02/07/2025,12:25:50.40,259.77,873.05,-573.73,-15.24,-9.93,4.34,-40.20,64.35,-15.60,33.11,11.268,
02/07/2025,12:25:50.50,-323.24,1303.71,540.04,12.89,105.45,-97.64,-41.25,63.90,-14.85,33.11,11.111,
02/07/2025,12:25:50.60,281.25,813.96,-517.09,-12.43,11.01,21.25,-39.90,65.40,-12.75,33.11,10.989,
02/07/2025,12:25:50.70,305.18,1151.86,-244.14,10.66,-2.07,-13.99,-41.10,65.55,-9.30,32.82,10.891,
02/07/2025,12:25:50.80,130.37,1074.22,-448.24,5.20,-9.63,-19.64,-40.35,66.75,-9.60,33.06,10.714,
02/07/2025,12:25:50.90,201.17,706.05,-231.93,3.30,-7.25,7.82,-39.15,68.10,-9.90,32.92,10.656,
02/07/2025,12:25:51.00,233.40,809.08,-395.02,9.32,-6.65,0.33,-40.05,66.0,-10.05,33.06,10.606,
02/07/2025,12:25:51.11,223.63,983.40,-348.63,3.82,-0.43,-2.21,-41.25,66.90,-10.95,32.97,10.563,
02/07/2025,12:25:51.21,172.85,904.79,-327.64,1.90,-1.45,-2.22,-40.35,67.20,-9.30,32.77,10.526,
02/07/2025,12:25:51.31,161.62,883.30,-316.89,2.53,1.40,-3.62,-40.95,67.65,-11.70,32.92,10.494,
02/07/2025,12:25:51.41,168.46,869.63,-384.77,2.27,4.76,-1.18,-40.95,66.90,-10.95,32.77,10.465,
02/07/2025,12:25:51.51,207.03,896.00,-335.45,-2.38,-1.22,-3.05,-42.0,67.35,-9.90,32.73,10.440,
02/07/2025,12:25:51.61,253.42,749.51,-391.60,-0.02,-16.47,-39.37,-39.0,68.70,-9.0,32.44,10.417,
02/07/2025,12:25:51.71,228.52,601.56,-333.01,0.30,-3.29,-32.38,-39.15,69.60,-10.50,32.77,10.396,
02/07/2025,12:25:51.81,181.15,739.75,-316.89,2.58,-1.01,-20.32,-38.55,69.45,-10.80,32.92,10.377,
02/07/2025,12:25:51.91,90.82,589.36,-304.20,1.40,-11.86,-49.66,-37.05,70.95,-10.35,32.77,10.360,
02/07/2025,12:25:52.01,82.52,900.88,-320.31,0.51,-0.90,-12.05,-35.55,70.95,-10.80,32.77,10.345,
02/07/2025,12:25:52.11,72.75,814.45,-334.96,6.11,-4.53,-21.33,-36.0,70.95,-10.35,32.77,10.331,
02/07/2025,12:25:52.21,66.41,916.99,-362.30,4.04,-2.98,-4.11,-34.65,72.60,-12.75,32.63,10.317,
02/07/2025,12:25:52.31,60.06,941.89,-334.96,-1.53,-1.88,-1.78,-34.20,72.45,-11.85,32.73,10.266,
02/07/2025,12:25:52.41,43.95,918.95,-331.05,-3.02,0.50,3.29,-34.35,72.30,-13.05,32.58,10.256,
02/07/2025,12:25:52.51,68.36,936.52,-352.05,2.97,-1.14,-2.60,-32.85,70.80,-14.55,32.29,10.247,
02/07/2025,12:25:52.62,61.04,924.32,-345.21,0.55,3.25,-2.0,-34.95,70.95,-13.95,32.73,10.239,
02/07/2025,12:25:52.72,43.95,918.95,-329.10,1.02,1.20,0.67,-33.30,71.10,-13.05,32.77,10.231,
02/07/2025,12:25:52.82,46.88,823.73,-235.84,-8.14,16.51,-28.34,-33.75,71.70,-14.70,32.58,10.224,
02/07/2025,12:25:52.92,48.34,909.67,-357.42,-1.86,-0.49,-1.18,-32.85,72.60,-12.45,32.73,10.217,
02/07/2025,12:25:53.02,31.74,901.86,-334.47,1.27,2.92,-2.57,-33.75,70.95,-13.65,32.77,10.210,
02/07/2025,12:25:53.12,65.92,912.60,-361.82,1.73,-0.33,-1.24,-33.60,70.35,-13.80,32.63,10.204,
02/07/2025,12:25:53.22,30.27,909.67,-330.08,2.23,0.21,-3.47,-33.45,70.95,-15.15,32.73,10.198,
02/07/2025,12:25:53.32,63.96,920.41,-345.21,0.12,1.43,-2.32,-33.75,71.25,-15.45,32.73,10.193,
02/07/2025,12:25:53.42,54.69,897.46,-336.43,0.92,2.16,-1.69,-33.75,72.0,-13.95,32.63,10.188,
02/07/2025,12:25:53.52,54.69,914.06,-348.14,1.57,1.84,0.86,-32.70,72.0,-14.70,32.73,10.183,
02/07/2025,12:25:53.62,37.11,905.27,-329.10,0.24,-2.69,0.82,-34.65,71.55,-14.25,32.58,10.152,
02/07/2025,12:25:53.72,40.04,912.11,-346.68,3.45,-2.12,-1.88,-33.45,72.0,-13.35,32.58,10.149,
02/07/2025,12:25:53.82,46.39,907.23,-352.05,2.15,1.11,0.73,-32.10,71.55,-13.05,32.39,10.145,
02/07/2025,12:25:53.92,65.43,914.55,-342.29,-0.13,0.15,-1.60,-34.95,70.95,-14.40,32.73,10.142,
02/07/2025,12:25:54.03,55.18,926.76,-347.66,-0.50,1.29,-2.50,-34.20,71.70,-12.90,32.44,10.138,
02/07/2025,12:25:54.13,52.73,916.50,-342.29,-0.10,1.16,-0.51,-34.35,71.85,-12.0,32.97,10.135,
02/07/2025,12:25:54.23,44.43,906.25,-338.87,0.52,-0.37,0.60,-33.90,71.55,-14.25,32.25,10.132,
02/07/2025,12:25:54.33,47.36,913.57,-347.66,2.04,-0.21,-1.13,-33.90,72.60,-13.50,32.39,10.129,
02/07/2025,12:25:54.43,51.27,908.20,-351.56,-0.16,1.31,1.70,-34.35,71.10,-14.25,32.73,10.127,
02/07/2025,12:25:54.53,60.06,918.95,-335.45,0.18,0.26,-0.19,-32.70,70.95,-13.35,32.63,10.124,
02/07/2025,12:25:54.63,36.13,922.85,-343.75,0.87,-0.27,-1.79,-32.85,71.55,-13.80,32.73,10.121,
02/07/2025,12:25:54.73,38.09,911.62,-338.38,0.49,0.62,-1.56,-33.0,71.70,-12.90,32.63,10.119,
02/07/2025,12:25:54.83,53.22,907.71,-344.73,1.73,1.50,0.03,-33.75,71.25,-13.65,32.58,10.117,
02/07/2025,12:25:54.93,51.27,904.79,-348.14,-1.54,1.66,-2.76,-33.0,71.25,-14.40,32.58,10.115,
02/07/2025,12:25:55.03,51.27,920.90,-342.77,-1.0,3.89,0.07,-33.75,70.95,-15.15,32.29,10.112,
02/07/2025,12:25:55.13,54.69,900.39,-353.03,0.53,-1.70,1.53,-32.70,70.95,-13.95,32.39,10.092,
02/07/2025,12:25:55.23,48.83,912.60,-342.29,1.06,0.99,-1.05,-33.90,70.35,-13.80,32.58,10.090,
02/07/2025,12:25:55.33,53.71,914.55,-360.35,2.83,1.54,2.12,-32.85,72.60,-13.05,32.58,10.088,
02/07/2025,12:25:55.44,44.43,911.62,-339.36,-0.20,0.73,-0.24,-33.30,71.85,-14.25,32.73,10.087,
02/07/2025,12:25:55.54,52.25,889.65,-336.91,1.36,1.63,-1.79,-32.25,72.90,-12.15,32.58,10.085,
02/07/2025,12:25:55.64,47.36,891.11,-345.21,1.85,-0.24,-1.69,-33.90,70.35,-11.70,32.58,10.084,
02/07/2025,12:25:55.74,37.11,909.18,-340.33,1.44,0.83,-0.44,-34.65,72.30,-13.50,32.53,10.083,
02/07/2025,12:25:55.84,46.39,914.06,-336.43,0.80,1.14,-0.48,-32.85,71.55,-13.05,32.39,10.081,
02/07/2025,12:25:55.94,54.69,922.85,-337.89,2.36,0.83,0.80,-34.20,72.90,-13.35,32.63,10.080,
02/07/2025,12:25:56.04,47.36,913.09,-347.66,0.79,0.27,0.26,-33.60,71.55,-13.80,32.58,10.079,
02/07/2025,12:25:56.14,51.76,913.57,-334.47,-0.94,-0.51,-0.37,-33.0,73.20,-12.60,32.39,10.078,
02/07/2025,12:25:56.24,48.34,913.57,-324.71,1.95,1.55,1.34,-33.30,71.85,-13.05,32.53,10.076,
02/07/2025,12:25:56.34,42.97,912.11,-338.87,1.53,1.08,0.60,-35.25,71.70,-13.35,32.44,10.075,
02/07/2025,12:25:56.44,42.97,922.36,-344.73,0.85,-0.98,-0.63,-34.35,70.80,-13.80,32.39,10.074,
02/07/2025,12:25:56.54,41.99,918.95,-340.33,0.82,1.18,1.18,-33.60,72.30,-14.55,32.44,10.058,
02/07/2025,12:25:56.64,55.66,910.16,-342.77,1.08,1.83,-1.44,-32.55,71.85,-13.50,32.29,10.057,
02/07/2025,12:25:56.74,36.13,926.27,-334.47,2.17,-0.47,1.60,-33.45,71.70,-12.15,32.25,10.057,
02/07/2025,12:25:56.85,44.43,916.02,-345.21,-0.94,0.53,-0.76,-33.30,70.80,-13.80,32.39,10.056,
02/07/2025,12:25:56.95,63.48,913.57,-334.47,0.98,-1.37,-1.48,-33.30,70.05,-13.05,32.58,10.055,
02/07/2025,12:25:57.05,46.39,928.71,-347.66,1.02,-1.16,0.66,-33.30,72.30,-12.75,32.29,10.054,
02/07/2025,12:25:57.15,46.39,911.62,-346.68,-0.26,0.88,-0.57,-33.90,72.60,-12.75,32.25,10.054,
02/07/2025,12:25:57.25,44.43,909.67,-336.43,-0.30,-0.02,-0.89,-32.85,71.85,-12.0,32.44,10.053,
02/07/2025,12:25:57.35,49.80,902.83,-354.49,-0.72,1.25,-0.51,-33.0,71.70,-13.95,32.29,10.052,
02/07/2025,12:25:57.45,42.97,915.04,-341.31,3.18,-1.81,-1.35,-33.0,71.25,-14.40,32.25,10.052,
02/07/2025,12:25:57.55,38.57,910.16,-340.82,0.40,0.63,0.03,-31.95,72.90,-13.95,32.58,10.051,
02/07/2025,12:25:57.65,57.13,909.67,-338.87,0.85,1.18,0.53,-33.45,70.95,-13.95,32.29,10.050,
02/07/2025,12:25:57.75,47.85,912.60,-340.33,0.0,-0.23,-1.23,-32.70,72.0,-13.65,32.39,10.050,
02/07/2025,12:25:57.85,51.27,912.60,-338.38,0.66,-1.38,-0.22,-32.85,71.85,-13.50,32.39,10.037,
02/07/2025,12:25:57.95,50.78,905.76,-347.66,0.79,-1.26,-2.67,-33.45,71.70,-13.35,32.39,10.036,
02/07/2025,12:25:58.05,57.62,922.85,-337.89,0.09,-0.56,-0.32,-33.75,71.25,-13.65,32.29,10.036,
02/07/2025,12:25:58.15,46.39,908.20,-339.36,0.77,-1.22,-1.76,-32.10,70.80,-13.50,32.44,10.035,
02/07/2025,12:25:58.26,57.13,911.62,-349.61,1.26,2.96,-3.68,-33.90,71.10,-13.80,32.25,10.035,
02/07/2025,12:25:58.36,40.53,911.62,-337.89,-0.40,-1.69,-1.87,-33.30,72.30,-14.85,32.20,10.035,
02/07/2025,12:25:58.46,41.99,909.18,-348.63,2.03,-0.61,-0.56,-34.20,70.95,-13.35,32.39,10.034,
02/07/2025,12:25:58.56,64.45,907.23,-347.17,-0.24,-1.77,-0.13,-32.70,71.70,-14.70,32.44,10.034,
02/07/2025,12:25:58.66,48.34,917.97,-341.31,1.21,0.83,0.44,-32.85,71.85,-13.05,32.29,10.033,
02/07/2025,12:25:58.76,48.83,898.93,-337.40,0.01,0.76,0.0,-33.75,71.25,-13.65,32.25,10.033,
02/07/2025,12:25:58.86,54.69,911.13,-357.42,-0.02,1.02,0.23,-33.75,70.95,-15.15,32.39,10.033,
02/07/2025,12:25:58.96,62.01,920.90,-354.49,1.60,1.56,1.73,-34.65,70.80,-13.50,32.25,10.032,
02/07/2025,12:25:59.06,47.85,903.32,-343.75,0.57,1.02,0.96,-32.85,71.85,-12.75,32.20,10.032,
02/07/2025,12:25:59.16,48.34,917.97,-345.70,1.64,1.65,0.30,-33.45,72.90,-13.35,32.39,10.032,
02/07/2025,12:25:59.26,49.32,908.69,-341.31,-1.27,-1.03,-0.56,-33.75,71.70,-13.95,32.58,10.031,
02/07/2025,12:25:59.36,45.90,901.37,-328.61,0.22,0.21,0.27,-32.70,71.25,-14.40,32.29,10.021,
02/07/2025,12:25:59.46,41.99,909.18,-330.57,1.72,1.12,-1.65,-32.55,71.55,-12.0,32.39,10.020,
02/07/2025,12:25:59.56,38.09,913.09,-341.80,2.02,2.27,-2.44,-32.85,71.10,-13.50,32.25,10.020,
02/07/2025,12:25:59.67,49.32,907.71,-343.75,3.11,-2.47,-0.56,-33.0,71.70,-13.65,32.29,10.020,
02/07/2025,12:25:59.77,43.95,911.62,-350.10,2.45,-0.05,-0.63,-34.20,72.45,-12.60,32.25,10.020,
02/07/2025,12:25:59.87,45.90,906.25,-345.70,1.08,0.53,0.16,-33.30,71.55,-13.05,32.10,10.020,
02/07/2025,12:25:59.97,37.60,908.69,-341.80,0.85,2.63,-1.64,-34.20,71.70,-14.40,32.53,10.019,
02/07/2025,12:26:00.07,48.34,905.76,-341.80,1.24,-1.31,-0.08,-33.45,71.70,-13.35,32.29,10.019,
02/07/2025,12:26:00.17,62.50,900.88,-334.47,1.24,0.21,2.03,-33.0,71.25,-13.35,32.29,10.019,
02/07/2025,12:26:00.27,34.67,904.79,-330.57,1.17,0.22,0.27,-35.10,71.10,-13.50,32.39,10.019,
02/07/2025,12:26:00.37,57.13,912.60,-354.98,0.21,0.21,0.64,-33.45,70.95,-13.35,32.39,10.019,
02/07/2025,12:26:00.47,41.50,911.62,-338.87,-1.11,-1.32,-1.31,-33.45,70.95,-12.60,32.25,10.019,
02/07/2025,12:26:00.57,41.50,914.55,-330.08,1.58,-0.85,-0.35,-32.85,71.55,-13.80,32.20,10.018,
02/07/2025,12:26:00.67,41.99,909.67,-345.21,0.39,2.47,-0.71,-33.90,70.35,-14.25,32.10,10.018,
02/07/2025,12:26:00.77,60.06,908.20,-331.54,0.56,1.28,0.16,-33.0,72.45,-12.90,32.39,10.009,
02/07/2025,12:26:00.87,42.97,914.55,-339.36,1.68,0.31,-1.59,-33.45,71.25,-13.35,32.25,10.009,
02/07/2025,12:26:00.97,41.50,914.06,-334.47,0.39,1.20,-1.41,-33.30,71.10,-12.75,32.25,10.009,
02/07/2025,12:26:01.08,51.76,911.62,-337.89,-0.38,1.47,2.56,-33.75,71.25,-12.90,32.29,10.009,
02/07/2025,12:26:01.18,45.90,919.92,-341.80,2.05,0.08,-4.68,-31.80,71.85,-13.50,32.25,10.009,
02/07/2025,12:26:01.28,46.39,909.18,-335.45,2.27,-1.87,1.49,-33.0,70.95,-13.95,32.29,10.009,
02/07/2025,12:26:01.38,44.92,907.71,-339.84,1.47,2.26,-0.22,-33.30,71.85,-13.80,32.10,10.009,
02/07/2025,12:26:01.48,48.83,922.36,-339.36,-1.13,1.07,-1.74,-32.85,70.35,-12.45,32.29,10.008,
02/07/2025,12:26:01.58,39.55,916.02,-342.77,-1.26,1.39,-1.82,-32.25,70.95,-12.60,32.39,10.008,
02/07/2025,12:26:01.68,44.92,932.62,-340.82,1.24,0.72,-1.15,-33.30,71.10,-13.05,32.39,10.008,
02/07/2025,12:26:01.78,59.08,912.11,-339.84,-0.60,2.02,0.03,-33.0,70.95,-13.95,32.25,10.008,
02/07/2025,12:26:01.88,53.22,911.13,-356.45,0.86,1.56,0.37,-33.0,70.50,-13.65,32.25,10.008,
02/07/2025,12:26:01.98,33.69,911.62,-342.77,-2.19,-1.26,-0.73,-33.30,71.85,-13.05,32.39,10.008,
02/07/2025,12:26:02.08,54.20,916.50,-346.68,2.32,-0.86,1.78,-34.20,70.50,-13.65,32.44,10.008,
02/07/2025,12:26:02.18,48.83,918.95,-340.33,-0.02,0.12,-1.98,-32.85,71.55,-14.25,32.25,10.0,
02/07/2025,12:26:02.28,41.50,905.76,-344.73,-0.29,0.66,-0.29,-33.90,71.85,-12.75,32.25,10.0,
02/07/2025,12:26:02.38,37.11,923.34,-348.63,0.62,-0.63,-0.15,-34.95,70.50,-13.65,32.39,10.0,
02/07/2025,12:26:02.49,56.15,910.16,-349.12,-0.48,0.70,-1.25,-34.95,70.95,-11.85,32.39,10.0,
02/07/2025,12:26:02.59,48.83,910.64,-333.98,-1.30,-0.41,-0.50,-33.45,71.25,-13.65,32.53,10.0,
02/07/2025,12:26:02.69,66.41,917.97,-360.35,0.22,1.34,1.24,-34.50,71.70,-13.95,32.10,10.0,
02/07/2025,12:26:02.79,57.62,910.16,-347.66,-2.65,0.23,-1.52,-35.10,70.35,-13.80,32.29,10.0,
02/07/2025,12:26:02.89,46.39,909.67,-333.50,-0.01,0.69,-0.11,-33.45,70.20,-13.35,32.25,10.0,
02/07/2025,12:26:02.99,59.08,916.99,-336.91,1.30,1.73,0.40,-33.45,71.25,-13.35,32.01,10.0,
02/07/2025,12:26:03.09,36.13,914.55,-345.70,1.68,-1.15,-1.44,-33.90,70.80,-13.50,32.39,10.0,
02/07/2025,12:26:03.19,57.62,904.30,-343.75,2.33,-0.29,-1.16,-33.30,70.05,-14.25,32.29,10.0,
02/07/2025,12:26:03.29,43.95,903.32,-348.14,0.35,1.12,-2.66,-33.90,70.80,-13.50,32.20,10.0,
02/07/2025,12:26:03.39,45.41,923.83,-341.80,0.90,0.49,-2.44,-33.75,72.0,-13.35,32.10,10.0,
02/07/2025,12:26:03.49,41.02,909.18,-336.91,-1.43,0.52,1.60,-31.20,71.25,-12.90,32.29,10.0,
02/07/2025,12:26:03.59,50.29,912.11,-342.29,2.06,0.17,-0.91,-33.45,72.45,-14.40,32.10,9.993,
02/07/2025,12:26:03.69,41.02,900.88,-332.52,0.82,-0.82,-0.84,-33.30,71.85,-13.80,32.06,9.993,
02/07/2025,12:26:03.79,48.34,908.69,-344.73,-0.06,0.60,1.60,-33.45,70.95,-12.90,31.91,9.993,
02/07/2025,12:26:03.90,42.97,921.88,-333.98,2.31,0.82,-1.54,-32.70,71.25,-12.60,32.29,9.993,
02/07/2025,12:26:04.00,41.99,910.64,-333.98,-0.58,-0.06,1.58,-34.20,72.0,-12.60,32.25,9.993,
02/07/2025,12:26:04.10,47.36,915.04,-345.21,0.0,-0.36,-0.86,-33.45,71.25,-14.40,32.25,9.993,
02/07/2025,12:26:04.20,39.06,919.43,-334.96,0.89,0.37,1.79,-33.60,72.60,-12.75,32.01,9.993,
02/07/2025,12:26:04.30,27.34,924.32,-338.87,0.82,0.85,1.92,-34.20,71.70,-13.35,32.25,9.993,
02/07/2025,12:26:04.40,44.92,916.02,-335.94,1.81,0.44,0.15,-34.35,73.35,-12.75,32.25,9.993,
02/07/2025,12:26:04.50,68.85,865.23,-352.54,0.94,-1.86,-0.01,-34.20,71.25,-13.65,32.10,9.993,
02/07/2025,12:26:04.60,49.32,897.95,-333.98,1.61,0.27,-1.37,-33.75,72.45,-14.40,32.01,9.993,
02/07/2025,12:26:04.70,61.04,904.30,-345.70,2.37,1.88,-2.30,-33.75,71.70,-13.95,31.91,9.993,
02/07/2025,12:26:04.80,54.20,913.57,-340.82,1.51,-1.27,-0.63,-33.60,73.05,-11.70,32.20,9.993,
02/07/2025,12:26:04.90,46.39,916.02,-350.10,-0.14,2.18,-1.51,-33.90,71.10,-13.05,32.29,9.993,
02/07/2025,12:26:05.00,39.06,912.11,-347.17,0.31,0.22,-0.02,-35.10,71.85,-13.50,32.39,9.987,
02/07/2025,12:26:05.10,56.64,924.32,-333.98,0.44,2.66,3.57,-33.60,70.80,-14.55,32.25,9.987,
02/07/2025,12:26:05.20,48.83,919.43,-348.14,1.85,-0.78,0.69,-34.20,71.25,-12.15,32.10,9.987,
02/07/2025,12:26:05.31,46.88,908.69,-346.19,3.95,0.58,-0.95,-32.70,72.90,-13.35,32.10,9.987,
02/07/2025,12:26:05.41,56.64,912.11,-335.94,0.49,0.88,-1.52,-33.60,72.30,-12.0,32.20,9.987,
02/07/2025,12:26:05.51,44.92,921.88,-342.77,1.87,-0.94,-1.63,-33.60,71.55,-12.75,32.25,9.987,
02/07/2025,12:26:05.61,54.20,908.20,-345.21,0.54,0.63,-1.56,-33.75,72.0,-14.70,32.10,9.987,
02/07/2025,12:26:05.71,56.64,925.78,-344.24,1.98,0.04,-0.91,-32.70,71.70,-12.90,32.20,9.988,
02/07/2025,12:26:05.81,38.57,926.76,-339.36,1.53,-1.69,-2.16,-33.45,72.0,-15.15,32.29,9.988,
02/07/2025,12:26:05.91,41.99,909.18,-338.38,-0.11,-0.04,0.45,-33.30,70.05,-13.80,32.25,9.988,
02/07/2025,12:26:06.01,48.34,909.18,-341.31,0.95,-0.13,0.60,-34.50,70.95,-12.90,32.25,9.988,
02/07/2025,12:26:06.11,34.67,916.99,-348.63,0.82,0.58,0.21,-33.75,71.70,-13.35,31.91,9.988,
02/07/2025,12:26:06.21,44.92,920.90,-333.01,1.15,1.43,1.27,-33.90,70.80,-13.05,32.10,9.988,
02/07/2025,12:26:06.31,55.18,910.64,-337.40,2.15,0.98,-0.62,-33.30,72.30,-12.75,32.20,9.988,
02/07/2025,12:26:06.41,41.02,928.71,-324.71,0.76,1.21,-0.06,-33.45,71.25,-11.85,32.01,9.982,
02/07/2025,12:26:06.51,42.97,915.53,-350.10,-0.24,0.82,0.83,-33.75,71.70,-13.35,32.25,9.982,
02/07/2025,12:26:06.61,38.09,900.39,-343.26,2.47,1.28,0.03,-33.75,71.70,-13.95,32.01,9.982,
02/07/2025,12:26:06.71,50.78,919.43,-351.07,0.01,-0.78,-0.73,-33.45,72.0,-13.35,32.25,9.982,
02/07/2025,12:26:06.82,52.25,909.67,-350.59,1.33,0.56,1.05,-32.10,71.10,-13.80,32.39,9.982,
02/07/2025,12:26:06.92,47.85,921.88,-335.45,1.98,-1.23,-0.31,-32.70,71.25,-12.90,32.06,9.983,
02/07/2025,12:26:07.02,41.99,908.69,-331.54,2.18,-0.53,0.18,-34.50,71.70,-12.90,31.91,9.983,
02/07/2025,12:26:07.12,42.97,902.83,-351.07,0.72,0.08,-2.21,-32.55,70.35,-13.80,31.91,9.983,
02/07/2025,12:26:07.22,55.18,912.11,-344.73,-0.14,-0.45,-0.98,-33.75,72.0,-13.65,32.25,9.983,
02/07/2025,12:26:07.32,49.80,914.06,-341.31,0.37,-1.57,-2.10,-32.70,73.65,-11.55,32.25,9.983,
02/07/2025,12:26:07.42,44.43,904.79,-336.91,1.36,-0.66,-1.52,-33.75,71.70,-13.95,32.01,9.983,
02/07/2025,12:26:07.52,46.88,925.78,-348.63,0.74,1.98,-1.46,-33.30,72.30,-11.70,32.06,9.983,
02/07/2025,12:26:07.62,41.02,912.11,-342.29,2.41,-1.18,-3.63,-33.60,73.35,-14.85,32.10,9.983,
02/07/2025,12:26:07.72,46.39,915.53,-332.52,1.44,-1.44,0.76,-34.35,71.10,-13.05,31.86,9.983,
02/07/2025,12:26:07.82,49.32,911.13,-340.33,0.89,1.09,1.33,-32.55,71.55,-12.45,32.10,9.978,
02/07/2025,12:26:07.92,42.48,914.55,-340.82,0.13,0.99,1.37,-32.55,71.10,-12.45,32.25,9.978,
02/07/2025,12:26:08.02,43.95,907.23,-338.87,1.32,-0.21,-1.53,-32.55,71.55,-12.75,32.20,9.978,
02/07/2025,12:26:08.13,47.85,915.04,-333.98,0.02,-0.80,-0.44,-31.95,70.50,-13.65,32.29,9.978,
02/07/2025,12:26:08.23,55.18,909.18,-336.43,0.79,-0.05,-1.68,-32.85,72.30,-13.50,32.10,9.978,
02/07/2025,12:26:08.33,47.85,915.53,-343.26,0.78,0.27,-0.04,-34.50,71.70,-13.65,32.29,9.979,
02/07/2025,12:26:08.43,44.92,909.67,-339.84,-0.27,-0.27,-0.27,-33.0,71.25,-12.90,32.20,9.979,
02/07/2025,12:26:08.53,48.34,917.48,-350.10,0.85,-1.12,-1.14,-33.0,71.70,-13.35,31.77,9.979,
02/07/2025,12:26:08.63,51.76,915.04,-349.61,1.84,0.69,1.35,-33.90,72.30,-12.45,32.01,9.979,
02/07/2025,12:26:08.73,45.41,905.27,-342.77,0.44,-0.23,0.44,-33.30,70.35,-14.55,32.29,9.979,
02/07/2025,12:26:08.83,29.79,913.09,-335.45,1.84,-0.59,-0.56,-32.85,72.30,-14.25,32.25,9.979,
02/07/2025,12:26:08.93,51.76,915.04,-348.63,0.73,-0.08,-1.08,-33.0,72.45,-13.35,32.25,9.979,
02/07/2025,12:26:09.03,57.13,907.71,-334.96,0.55,-0.05,-0.73,-33.90,71.55,-13.50,32.01,9.979,
02/07/2025,12:26:09.13,51.76,909.67,-345.70,3.76,-1.74,-0.38,-33.45,71.70,-14.40,31.91,9.979,
02/07/2025,12:26:09.23,56.64,915.04,-341.80,0.60,0.37,0.15,-32.55,72.60,-14.25,31.86,9.980,
02/07/2025,12:26:09.33,47.36,910.16,-347.17,0.55,1.44,-1.56,-33.30,72.30,-13.50,32.01,9.975,
02/07/2025,12:26:09.43,47.36,911.62,-335.94,-0.31,-1.70,-1.03,-33.30,71.55,-13.05,32.06,9.975,
02/07/2025,12:26:09.53,45.41,911.62,-353.03,-1.54,1.68,-0.22,-33.75,71.25,-12.15,32.25,9.975,
02/07/2025,12:26:09.64,51.76,910.64,-339.84,1.62,1.10,0.31,-33.75,72.45,-12.90,32.20,9.975,
02/07/2025,12:26:09.74,53.71,912.60,-355.96,0.55,0.95,-0.63,-33.45,71.25,-14.40,32.01,9.975,
02/07/2025,12:26:09.84,55.18,914.06,-354.49,-1.12,0.58,-0.93,-34.95,70.95,-13.65,32.29,9.975,
02/07/2025,12:26:09.94,41.02,917.97,-352.05,0.42,-0.53,-2.21,-33.0,72.0,-12.60,32.10,9.975,
02/07/2025,12:26:10.04,56.64,912.60,-343.75,-0.28,-1.18,-3.34,-32.55,71.85,-13.80,32.06,9.975,
02/07/2025,12:26:10.14,41.02,911.62,-329.10,-0.82,0.79,0.34,-34.35,71.55,-14.25,32.25,9.976,
02/07/2025,12:26:10.24,41.99,908.69,-338.87,0.08,1.75,-0.32,-34.50,71.70,-12.60,32.20,9.976,
02/07/2025,12:26:10.34,49.80,904.79,-345.70,1.17,-1.43,-0.94,-33.60,71.10,-12.45,32.10,9.976,
02/07/2025,12:26:10.44,50.78,918.95,-343.26,-0.35,2.32,-1.40,-32.55,70.35,-12.75,32.01,9.976,
02/07/2025,12:26:10.54,46.88,916.50,-341.80,0.82,0.97,0.24,-35.25,72.45,-11.55,32.01,9.976,
02/07/2025,12:26:10.64,54.20,922.85,-337.89,-0.13,0.25,-1.57,-33.75,70.50,-13.35,32.06,9.971,
02/07/2025,12:26:10.74,46.88,913.09,-345.70,1.66,-0.43,-0.53,-33.60,71.55,-13.50,32.06,9.972,
02/07/2025,12:26:10.84,56.15,909.18,-324.71,1.64,1.76,-1.17,-33.0,70.95,-13.95,32.10,9.972,
02/07/2025,12:26:10.94,52.25,927.25,-332.03,0.50,0.52,0.08,-33.0,71.70,-12.60,32.01,9.972,
02/07/2025,12:26:11.05,38.57,919.43,-340.82,1.67,0.91,-0.43,-34.20,70.50,-12.60,31.72,9.972,
02/07/2025,12:26:11.15,48.34,925.29,-340.33,1.15,1.65,0.60,-33.30,73.35,-14.85,31.67,9.972,
02/07/2025,12:26:11.25,39.55,904.79,-346.19,1.37,-1.46,-2.16,-33.90,71.10,-13.80,32.20,9.972,
02/07/2025,12:26:11.35,63.96,914.06,-329.10,0.62,-1.05,-1.05,-32.25,71.25,-14.40,32.01,9.972,
02/07/2025,12:26:11.45,51.27,908.69,-354.00,0.69,2.46,0.89,-33.60,71.55,-13.80,32.20,9.972,
02/07/2025,12:26:11.55,37.11,923.34,-350.59,0.62,1.47,0.12,-34.35,72.30,-12.45,32.25,9.973,
02/07/2025,12:26:11.65,51.76,916.02,-348.14,0.41,2.02,0.53,-34.50,71.25,-12.90,32.25,9.973,
02/07/2025,12:26:11.75,47.36,916.99,-337.40,1.48,0.18,0.79,-34.20,73.20,-12.60,31.91,9.973,
02/07/2025,12:26:11.85,40.53,907.71,-344.24,-0.22,-0.86,-0.92,-34.65,71.85,-12.0,32.10,9.973,
02/07/2025,12:26:11.95,50.78,906.25,-340.33,2.35,-2.50,1.52,-34.35,71.10,-12.45,31.91,9.973,
02/07/2025,12:26:12.05,38.57,927.73,-335.94,-0.72,-0.25,-1.78,-33.45,71.70,-13.35,31.91,9.973,
02/07/2025,12:26:12.15,77.15,898.93,-381.35,0.05,-0.96,0.44,-32.70,71.70,-13.35,32.01,9.969,
02/07/2025,12:26:12.25,46.39,909.18,-340.33,0.02,0.74,0.17,-34.35,72.30,-12.45,31.91,9.969,
02/07/2025,12:26:12.35,45.90,918.95,-330.08,-0.31,-1.56,-0.12,-32.70,71.70,-12.60,32.01,9.969,
02/07/2025,12:26:12.46,31.74,919.43,-336.91,1.02,-1.01,-0.73,-33.90,71.85,-12.75,32.01,9.969,
02/07/2025,12:26:12.56,48.34,915.53,-338.87,1.68,-0.40,1.22,-33.60,71.10,-13.50,31.91,9.969,
02/07/2025,12:26:12.66,47.85,903.81,-346.68,0.92,2.10,-0.61,-33.30,73.05,-12.45,32.10,9.970,
02/07/2025,12:26:12.76,41.50,933.11,-348.14,0.34,0.98,-0.21,-34.20,72.0,-12.90,32.01,9.970,
02/07/2025,12:26:12.86,37.60,924.32,-337.40,1.36,-1.35,-0.22,-34.95,71.25,-13.65,31.91,9.970,
02/07/2025,12:26:12.96,41.50,907.71,-346.19,-0.15,0.60,-0.05,-32.70,72.45,-13.65,32.01,9.970,
02/07/2025,12:26:13.06,56.64,917.48,-353.52,-1.88,1.46,-0.48,-33.75,72.0,-13.35,32.20,9.970,
02/07/2025,12:26:13.16,43.46,898.44,-352.05,0.11,0.56,-0.04,-33.90,72.30,-13.80,31.91,9.970,
02/07/2025,12:26:13.26,38.09,901.86,-353.52,0.95,-0.22,-0.73,-31.95,72.90,-13.35,31.86,9.970,
02/07/2025,12:26:13.36,47.36,910.16,-337.89,0.99,0.23,-2.15,-33.90,72.30,-13.05,32.01,9.970,
02/07/2025,12:26:13.46,36.62,915.53,-332.52,-0.43,-0.95,1.10,-33.75,70.95,-12.90,31.91,9.971,
02/07/2025,12:26:13.56,42.48,908.20,-333.50,2.56,-2.27,0.01,-32.85,71.55,-12.45,32.20,9.966,
02/07/2025,12:26:13.66,44.92,908.20,-342.77,0.47,1.10,-0.21,-33.0,71.70,-13.65,31.77,9.967,
02/07/2025,12:26:13.76,43.46,902.34,-348.63,1.15,-0.63,-0.24,-34.20,72.90,-12.15,31.58,9.967,
02/07/2025,12:26:13.87,47.85,912.11,-345.70,0.25,0.53,-1.74,-32.55,72.30,-13.50,32.01,9.967,
02/07/2025,12:26:13.97,40.04,907.71,-328.61,1.37,0.85,-0.65,-33.30,72.30,-13.05,31.91,9.967,
02/07/2025,12:26:14.07,43.46,912.11,-344.24,1.42,-1.07,-2.74,-33.60,70.80,-12.75,31.91,9.967,
02/07/2025,12:26:14.17,46.88,912.11,-349.12,-0.18,1.15,-0.06,-33.75,70.50,-13.35,31.91,9.967,
02/07/2025,12:26:14.27,46.88,908.20,-341.31,0.76,0.64,0.37,-32.25,70.20,-12.60,31.77,9.967,
02/07/2025,12:26:14.37,48.83,918.95,-350.10,-0.50,0.08,-4.76,-34.35,71.10,-13.05,32.10,9.968,
02/07/2025,12:26:14.47,47.36,922.36,-342.77,1.31,1.66,-1.49,-33.60,71.55,-14.25,31.86,9.968,
02/07/2025,12:26:14.57,59.08,904.30,-339.36,0.71,0.02,-1.46,-34.50,73.20,-12.90,31.72,9.968,
02/07/2025,12:26:14.67,63.96,909.67,-322.75,1.50,0.67,-1.15,-33.30,71.85,-12.45,31.86,9.968,
02/07/2025,12:26:14.77,51.76,895.51,-354.00,-0.11,0.04,0.68,-33.75,70.95,-12.60,31.91,9.968,
02/07/2025,12:26:14.87,45.41,904.79,-343.75,1.69,-0.14,-0.21,-33.90,71.10,-13.80,32.01,9.968,
02/07/2025,12:26:14.97,54.20,910.64,-337.89,-0.21,-0.29,-1.05,-32.10,70.80,-13.50,31.86,9.964,
02/07/2025,12:26:15.07,40.53,915.04,-343.75,-1.01,1.83,0.68,-32.85,71.85,-12.75,31.91,9.965,
02/07/2025,12:26:15.17,45.90,908.69,-353.52,0.54,-1.04,1.40,-33.90,71.85,-12.75,31.91,9.965,
02/07/2025,12:26:15.28,44.43,912.11,-343.26,-0.40,0.10,-0.98,-32.55,73.05,-13.50,31.86,9.965,
02/07/2025,12:26:15.38,44.92,911.13,-343.26,1.12,1.27,-0.17,-33.75,72.90,-12.90,31.72,9.965,
02/07/2025,12:26:15.48,49.32,919.43,-342.77,1.41,0.49,0.76,-33.45,70.95,-12.90,31.86,9.965,
02/07/2025,12:26:15.58,42.48,913.57,-343.26,1.97,2.59,1.11,-34.65,71.10,-14.25,32.20,9.965,
02/07/2025,12:26:15.68,37.60,908.69,-350.10,-0.02,1.18,-0.66,-33.45,72.45,-13.35,31.91,9.965,
02/07/2025,12:26:15.78,41.02,920.41,-338.38,1.79,0.34,2.02,-33.45,71.70,-13.95,32.01,9.966,
02/07/2025,12:26:15.88,39.55,904.30,-335.45,2.31,1.07,-0.36,-32.25,70.95,-13.35,32.01,9.966,
02/07/2025,12:26:15.98,64.45,917.97,-343.75,1.88,-0.26,0.56,-33.45,71.25,-13.65,32.01,9.966,
02/07/2025,12:26:16.08,45.41,915.04,-336.43,1.18,-0.05,-1.02,-33.0,71.70,-13.65,32.10,9.966,
02/07/2025,12:26:16.18,53.22,903.81,-350.10,-1.10,1.05,-1.10,-32.85,71.55,-12.75,31.86,9.966,
02/07/2025,12:26:16.28,45.41,911.13,-337.89,1.71,-1.11,0.35,-33.45,71.70,-13.65,31.77,9.966,
02/07/2025,12:26:16.38,49.80,919.43,-337.89,2.88,2.58,0.65,-34.50,73.20,-13.95,31.72,9.963,
02/07/2025,12:26:16.48,44.43,910.64,-335.45,3.79,-2.66,-1.38,-34.20,71.25,-13.35,31.91,9.963,
02/07/2025,12:26:16.58,39.55,906.74,-336.43,1.77,-0.30,-0.36,-33.30,71.10,-12.0,31.91,9.963,
02/07/2025,12:26:16.69,43.95,913.57,-342.77,1.79,1.98,-0.40,-33.60,71.55,-12.75,32.01,9.963,
02/07/2025,12:26:16.79,48.83,917.48,-339.84,1.31,0.70,-1.58,-33.90,71.10,-14.55,31.86,9.963,
02/07/2025,12:26:16.89,46.88,912.60,-352.54,2.81,0.56,-0.69,-33.60,70.05,-14.25,31.86,9.963,
02/07/2025,12:26:16.99,63.48,912.60,-350.10,0.26,-2.20,-1.53,-33.60,72.30,-14.25,31.91,9.963,
02/07/2025,12:26:17.09,57.13,910.16,-344.73,-0.51,0.37,0.33,-32.70,72.45,-14.40,31.72,9.964,
02/07/2025,12:26:17.19,50.29,909.67,-337.40,0.87,0.16,0.44,-33.30,71.85,-13.50,31.38,9.964,
02/07/2025,12:26:17.29,55.66,916.50,-327.15,1.36,-0.41,-0.63,-34.20,71.25,-13.95,31.48,9.964,
02/07/2025,12:26:17.39,43.95,910.64,-343.26,-0.22,1.51,-2.50,-33.0,72.45,-15.15,31.91,9.964,
02/07/2025,12:26:17.49,32.23,905.27,-350.59,1.04,0.25,1.0,-33.75,71.25,-14.70,31.77,9.964,
02/07/2025,12:26:17.59,54.20,926.27,-352.54,1.31,-0.60,-2.67,-31.35,72.60,-14.85,31.86,9.964,
02/07/2025,12:26:17.69,51.76,909.67,-343.26,-0.72,1.43,-0.54,-32.85,70.35,-14.55,31.91,9.964,
02/07/2025,12:26:17.79,59.08,917.48,-336.43,1.30,-0.92,-1.89,-32.85,71.55,-12.45,31.77,9.961,
02/07/2025,12:26:17.89,44.43,914.06,-351.07,-0.38,0.31,2.39,-33.60,71.10,-13.50,31.91,9.961,
02/07/2025,12:26:17.99,40.53,913.57,-332.52,0.50,1.70,-0.42,-34.50,71.70,-12.90,31.72,9.961,
02/07/2025,12:26:18.09,46.88,910.64,-350.10,1.04,0.15,0.39,-32.70,70.95,-13.35,31.86,9.961,
02/07/2025,12:26:18.20,44.92,920.41,-347.17,1.07,2.21,-0.39,-32.55,71.10,-13.50,31.72,9.961,
02/07/2025,12:26:18.30,49.80,915.53,-352.54,2.46,-0.62,-3.17,-34.20,72.0,-14.70,31.91,9.962,
02/07/2025,12:26:18.40,42.97,908.69,-333.50,4.22,-1.41,-4.71,-34.35,70.80,-12.0,31.72,9.962,
02/07/2025,12:26:18.50,55.66,914.55,-344.24,-1.51,1.04,-1.05,-33.75,72.0,-13.35,31.72,9.962,
02/07/2025,12:26:18.60,48.34,903.32,-343.75,1.05,2.46,-2.34,-33.30,71.10,-14.25,31.86,9.962,
02/07/2025,12:26:18.70,49.80,910.16,-345.70,-0.18,1.05,-1.47,-33.0,72.90,-13.35,32.01,9.962,
02/07/2025,12:26:18.80,48.34,922.85,-340.82,1.06,-1.66,-0.60,-33.90,70.80,-14.55,31.77,9.962,
02/07/2025,12:26:18.90,49.32,915.04,-340.33,0.69,-0.79,-1.11,-34.20,71.25,-14.40,31.72,9.962,
02/07/2025,12:26:19.00,40.53,911.13,-340.33,-0.17,0.12,0.18,-32.25,70.20,-13.35,31.91,9.962,
02/07/2025,12:26:19.10,54.20,902.83,-345.21,0.30,0.48,-1.88,-33.60,71.10,-13.80,31.53,9.963,
02/07/2025,12:26:19.20,42.48,908.20,-341.31,0.55,1.15,-1.11,-33.90,71.10,-13.50,31.58,9.963,
02/07/2025,12:26:19.30,49.80,913.57,-346.19,1.04,-1.42,-1.44,-34.20,72.90,-13.65,31.86,9.959,
02/07/2025,12:26:19.40,46.88,914.06,-345.21,0.49,1.56,-0.37,-33.90,72.30,-13.05,32.01,9.960,
02/07/2025,12:26:19.50,49.80,921.88,-346.68,0.85,2.02,-0.58,-33.75,71.70,-13.65,31.77,9.960,
02/07/2025,12:26:19.61,55.66,908.20,-349.61,1.74,0.56,-0.15,-34.20,71.70,-13.65,31.91,9.960,
02/07/2025,12:26:19.71,50.78,912.11,-339.36,1.33,-1.11,-0.21,-33.0,71.70,-11.85,31.77,9.960,
02/07/2025,12:26:19.81,45.90,915.04,-332.03,0.94,-0.21,0.01,-34.50,72.45,-13.65,31.91,9.960,
02/07/2025,12:26:19.91,49.32,921.88,-349.61,-1.33,2.55,0.57,-33.45,71.70,-13.95,31.91,9.960,
02/07/2025,12:26:20.01,47.36,920.90,-343.75,-0.24,0.41,-2.36,-32.10,72.30,-14.85,31.72,9.960,
02/07/2025,12:26:20.11,51.76,909.67,-335.45,3.26,2.20,-2.70,-33.60,71.10,-12.75,31.67,9.961,
02/07/2025,12:26:20.21,44.43,907.71,-343.75,0.73,0.25,0.95,-32.70,71.25,-13.65,31.86,9.961,
02/07/2025,12:26:20.31,50.78,902.83,-342.29,1.54,0.40,-0.37,-32.25,72.0,-13.35,31.86,9.961,
02/07/2025,12:26:20.41,41.99,914.06,-343.75,0.64,0.35,0.32,-32.85,71.55,-12.0,31.86,9.961,
02/07/2025,12:26:20.51,43.95,910.64,-344.73,2.18,0.91,-1.66,-32.70,71.70,-12.60,31.77,9.961,
02/07/2025,12:26:20.61,33.20,913.09,-330.57,1.52,0.10,-0.16,-33.30,70.80,-12.45,32.10,9.961,
02/07/2025,12:26:20.71,52.73,910.16,-347.17,-0.66,-1.34,-2.67,-35.85,71.55,-13.50,31.86,9.958,
02/07/2025,12:26:20.81,44.43,905.76,-335.45,1.34,0.68,-1.50,-33.45,71.70,-13.65,31.91,9.958,
02/07/2025,12:26:20.91,43.95,907.71,-343.26,2.52,-0.18,-0.06,-34.35,72.30,-13.05,31.72,9.958,
02/07/2025,12:26:21.02,53.22,913.57,-345.21,0.95,-0.39,0.29,-33.75,72.0,-13.95,31.67,9.959,
02/07/2025,12:26:21.12,56.64,915.04,-350.59,0.95,1.11,-3.49,-33.0,72.90,-14.70,31.77,9.959,
02/07/2025,12:26:21.22,37.11,905.76,-342.29,0.19,1.69,0.76,-33.30,71.10,-13.80,31.86,9.959,
02/07/2025,12:26:21.32,55.18,919.43,-334.96,1.37,1.30,-1.42,-32.55,72.30,-11.70,31.77,9.959,
02/07/2025,12:26:21.42,45.90,909.67,-348.63,2.38,-0.48,-1.25,-33.30,72.30,-13.50,31.91,9.959,
02/07/2025,12:26:21.52,55.18,913.09,-333.98,0.74,-0.97,-1.08,-34.65,71.85,-13.80,31.91,9.959,
02/07/2025,12:26:21.62,50.78,909.18,-320.80,0.09,0.80,0.65,-33.30,71.55,-12.75,31.77,9.959,
02/07/2025,12:26:21.72,41.02,925.78,-336.91,0.38,-1.11,-1.44,-34.35,71.55,-13.50,31.91,9.959,
02/07/2025,12:26:21.82,45.41,913.57,-340.82,2.86,2.47,1.56,-32.55,71.85,-12.45,31.67,9.960,
02/07/2025,12:26:21.92,39.55,902.83,-345.70,0.56,-1.73,-0.70,-33.60,72.60,-13.05,31.53,9.960,
02/07/2025,12:26:22.02,49.80,914.06,-339.36,1.88,-1.09,0.15,-32.70,72.0,-12.90,31.77,9.960,
02/07/2025,12:26:22.12,62.01,915.53,-340.82,1.04,-0.10,-0.62,-33.90,72.30,-12.45,31.86,9.957,
02/07/2025,12:26:22.22,39.55,909.18,-354.49,1.02,0.18,0.87,-31.95,70.50,-12.90,31.91,9.957,
02/07/2025,12:26:22.32,36.13,907.71,-328.61,2.18,-1.18,-0.24,-34.20,70.20,-13.65,31.91,9.957,
02/07/2025,12:26:22.42,45.90,910.16,-326.66,0.02,0.73,-2.44,-33.30,71.10,-13.80,31.72,9.957,
02/07/2025,12:26:22.53,32.71,914.06,-356.93,0.50,-0.21,-2.07,-33.60,70.80,-13.80,31.72,9.957,
02/07/2025,12:26:22.63,46.88,926.76,-341.80,1.32,0.99,-0.65,-32.25,70.50,-12.60,31.72,9.957,
02/07/2025,12:26:22.73,62.01,915.04,-345.21,2.34,-0.18,0.83,-34.50,72.0,-12.90,31.91,9.958,
02/07/2025,12:26:22.83,40.53,918.46,-344.73,0.77,1.47,-1.60,-32.85,71.55,-13.05,31.91,9.958,
02/07/2025,12:26:22.93,44.92,910.16,-342.77,1.34,-1.87,-1.86,-32.70,70.95,-13.65,31.91,9.958,
02/07/2025,12:26:23.03,50.78,917.48,-335.94,1.99,2.22,-0.08,-33.75,71.70,-13.65,31.91,9.958,
02/07/2025,12:26:23.13,50.29,901.37,-336.43,0.20,-0.48,-0.75,-35.10,71.55,-13.80,31.72,9.958,
02/07/2025,12:26:23.23,33.20,912.60,-348.63,2.34,1.50,0.18,-32.85,71.85,-12.45,31.77,9.958,
02/07/2025,12:26:23.33,50.29,915.53,-334.96,0.92,-2.43,1.83,-32.85,71.85,-13.80,31.91,9.958,
02/07/2025,12:26:23.43,53.71,915.53,-336.91,2.59,0.69,-1.21,-34.20,71.70,-14.70,31.72,9.959,
02/07/2025,12:26:23.53,38.57,902.34,-341.80,-0.57,1.59,-0.93,-31.50,71.25,-12.60,31.67,9.959,
02/07/2025,12:26:23.63,45.90,904.79,-326.17,-0.11,1.82,-1.71,-32.70,71.25,-13.35,31.58,9.956,
02/07/2025,12:26:23.73,53.22,901.37,-341.31,1.31,-0.05,0.66,-32.85,71.85,-12.75,31.53,9.956,
02/07/2025,12:26:23.83,56.64,916.02,-340.33,0.26,1.31,0.96,-33.30,71.85,-13.80,31.72,9.956,
02/07/2025,12:26:23.94,38.57,904.79,-342.77,2.27,-0.14,0.0,-34.50,72.0,-13.65,31.72,9.956,
02/07/2025,12:26:24.04,32.71,914.06,-342.77,1.56,-0.85,-3.97,-32.25,72.0,-14.40,31.77,9.956,
02/07/2025,12:26:24.14,45.90,921.88,-338.38,0.38,1.27,1.92,-33.45,71.70,-12.90,31.77,9.956,
02/07/2025,12:26:24.24,52.73,915.04,-343.26,-0.52,0.80,0.35,-33.90,71.55,-13.50,31.72,9.957,
02/07/2025,12:26:24.34,41.99,916.02,-336.43,0.58,1.0,-0.91,-33.60,71.55,-13.05,31.67,9.957,
02/07/2025,12:26:24.44,46.88,908.69,-330.08,3.11,-0.73,-1.44,-33.30,70.80,-14.55,31.86,9.957,
02/07/2025,12:26:24.54,40.04,913.09,-341.31,0.67,1.05,-0.20,-32.70,72.0,-13.65,31.72,9.957,
02/07/2025,12:26:24.64,54.20,897.95,-348.63,0.79,1.27,-1.24,-34.20,72.0,-13.65,31.67,9.957,
02/07/2025,12:26:24.74,41.99,900.39,-340.82,0.02,-0.21,-3.05,-34.50,72.0,-13.65,31.53,9.957,
02/07/2025,12:26:24.84,37.11,898.44,-333.98,0.63,0.54,0.50,-34.35,70.80,-13.80,31.38,9.957,
02/07/2025,12:26:24.94,48.34,920.90,-349.61,0.38,1.95,0.31,-32.70,71.25,-13.65,31.86,9.957,
02/07/2025,12:26:25.04,54.69,922.36,-332.52,1.26,-0.19,1.47,-34.50,70.95,-13.65,31.86,9.955,
02/07/2025,12:26:25.14,46.39,909.18,-344.73,0.18,-2.98,-2.17,-33.45,72.45,-13.35,31.53,9.955,
02/07/2025,12:26:25.24,59.57,908.69,-341.80,2.17,0.50,-0.25,-34.65,71.85,-14.25,31.91,9.955,
02/07/2025,12:26:25.34,49.80,920.41,-341.31,0.13,-2.32,-1.36,-32.55,71.10,-13.80,31.67,9.955,
02/07/2025,12:26:25.45,41.99,919.43,-345.70,1.05,1.50,-0.25,-32.70,70.50,-12.60,31.58,9.955,
02/07/2025,12:26:25.55,55.18,907.71,-340.82,0.29,0.43,-1.36,-33.60,71.85,-13.80,31.72,9.955,
02/07/2025,12:26:25.65,41.50,912.11,-354.00,2.35,0.31,-0.37,-32.85,72.30,-15.30,31.86,9.956,
02/07/2025,12:26:25.75,44.92,911.13,-349.12,2.01,1.42,-1.58,-32.85,71.10,-13.05,31.53,9.956,
02/07/2025,12:26:25.85,57.13,916.02,-334.47,-1.45,0.60,-0.26,-33.75,71.25,-13.35,31.38,9.956,
02/07/2025,12:26:25.95,58.11,910.64,-337.40,0.15,1.30,1.43,-32.55,72.60,-13.50,31.72,9.956,
02/07/2025,12:26:26.05,49.80,920.41,-332.52,1.53,0.08,-2.83,-33.75,71.25,-13.65,31.77,9.956,
02/07/2025,12:26:26.15,68.36,912.11,-339.84,2.53,-1.30,0.50,-33.60,72.30,-14.25,31.77,9.956,
02/07/2025,12:26:26.25,39.06,915.53,-332.52,0.95,0.82,-0.96,-33.45,71.70,-13.95,31.72,9.956,
02/07/2025,12:26:26.35,50.29,919.43,-340.33,1.65,-0.89,0.79,-32.10,72.30,-14.25,31.77,9.956,
02/07/2025,12:26:26.45,47.36,908.69,-343.75,1.79,-1.13,-0.50,-34.50,71.25,-12.60,31.77,9.954,
02/07/2025,12:26:26.55,45.90,915.04,-340.82,1.47,1.11,0.27,-34.35,72.30,-14.85,31.72,9.954,
02/07/2025,12:26:26.65,53.22,910.64,-342.77,0.92,-0.15,-2.37,-33.0,70.95,-13.35,31.77,9.954,
02/07/2025,12:26:26.76,36.13,916.99,-351.07,2.11,1.34,0.72,-33.60,72.60,-14.55,31.48,9.954,
02/07/2025,12:26:26.86,55.18,911.13,-342.77,-0.25,0.34,0.79,-33.30,71.85,-12.75,31.58,9.954,
02/07/2025,12:26:26.96,51.27,895.51,-332.52,2.64,0.07,-2.15,-32.55,70.35,-13.80,31.72,9.954,
02/07/2025,12:26:27.06,39.55,900.88,-344.24,0.38,-0.62,0.28,-33.60,72.30,-13.05,31.67,9.955,
02/07/2025,12:26:27.16,49.80,913.09,-341.31,-0.11,2.17,-1.56,-34.65,71.55,-12.45,31.72,9.955,
02/07/2025,12:26:27.26,39.55,931.64,-350.10,1.44,-1.95,1.49,-34.20,71.25,-13.95,31.48,9.955,
02/07/2025,12:26:27.36,43.95,909.18,-342.29,1.26,1.52,0.08,-33.75,72.45,-12.90,31.67,9.955,
02/07/2025,12:26:27.46,62.01,908.20,-348.63,1.71,-1.62,-1.49,-32.85,70.80,-12.75,31.72,9.955,
02/07/2025,12:26:27.56,49.80,917.97,-336.91,-0.54,0.95,-1.17,-31.95,73.20,-13.35,31.58,9.955,
02/07/2025,12:26:27.66,40.04,969.73,-330.57,1.34,-0.42,-1.06,-33.60,73.05,-13.05,31.53,9.955,
02/07/2025,12:26:27.76,-76.66,882.81,-368.16,2.31,-9.89,9.44,-33.75,72.0,-13.65,31.67,9.955,
02/07/2025,12:26:27.86,6.35,945.80,-332.52,5.18,0.79,-8.02,-33.75,71.70,-13.95,31.67,9.955,
02/07/2025,12:26:27.96,98.14,959.96,-396.00,-2.82,12.28,-9.41,-34.65,71.10,-13.50,31.72,9.953,
02/07/2025,12:26:28.06,41.50,998.05,-262.70,-1.53,4.27,-2.13,-33.90,73.05,-13.05,31.86,9.953,
02/07/2025,12:26:28.16,89.84,937.99,-282.23,1.58,4.21,-7.47,-33.60,70.80,-12.45,31.67,9.953,
02/07/2025,12:26:28.27,66.41,953.13,-362.79,-5.42,13.74,-15.95,-34.20,73.65,-12.90,31.67,9.953,
02/07/2025,12:26:28.37,57.13,806.64,-388.67,-8.09,7.11,-16.36,-33.45,73.20,-11.55,31.72,9.953,
02/07/2025,12:26:28.47,-12.70,882.81,-371.09,-0.16,4.64,-11.08,-31.05,73.05,-9.90,31.67,9.954,
02/07/2025,12:26:28.57,22.46,1035.64,-334.47,-0.85,5.82,-12.58,-31.05,74.85,-10.50,31.67,9.954,
02/07/2025,12:26:28.67,-127.93,833.50,-440.43,3.87,19.96,-19.36,-29.55,75.60,-10.95,31.72,9.954,
02/07/2025,12:26:28.77,51.27,1055.66,-314.45,0.69,8.15,-14.22,-29.40,75.90,-9.30,31.48,9.954,
02/07/2025,12:26:28.87,-106.93,941.41,-476.56,22.07,20.60,-1.47,-30.30,73.80,-9.15,31.58,9.954,
02/07/2025,12:26:28.97,8.30,1032.71,-418.95,32.10,30.69,24.63,-31.20,73.80,-9.90,31.58,9.954,
02/07/2025,12:26:29.07,-160.64,1072.27,-490.23,14.66,7.11,28.06,-33.60,70.80,-10.95,31.58,9.954,
02/07/2025,12:26:29.17,-13.18,957.52,-337.40,-47.06,-62.66,53.36,-34.50,65.55,-11.55,31.72,9.954,
02/07/2025,12:26:29.27,275.39,875.49,-338.87,-67.76,-33.41,96.56,-35.25,63.30,-11.85,31.72,9.955,
02/07/2025,12:26:29.37,462.40,946.29,-225.59,-62.76,17.02,99.42,-39.0,58.05,-7.50,31.58,9.952,
02/07/2025,12:26:29.47,662.60,665.53,-65.92,-24.89,46.72,36.81,-43.35,53.40,-3.90,31.58,9.952,
02/07/2025,12:26:29.57,341.31,630.37,188.48,12.79,-16.38,19.85,-41.55,52.65,-1.35,31.53,9.952,
02/07/2025,12:26:29.67,575.68,541.50,-179.69,-38.34,-16.82,-34.18,-41.25,53.25,-5.55,31.67,9.952,
02/07/2025,12:26:29.78,420.90,617.19,-194.82,-16.88,-1.88,-111.37,-37.95,55.95,-5.85,31.58,9.953,
02/07/2025,12:26:29.88,254.88,925.78,11.23,-72.47,-3.55,-77.36,-34.20,62.25,0.0,31.14,9.953,
02/07/2025,12:26:29.98,61.52,978.03,72.75,-38.50,-6.0,-45.01,-28.95,66.0,4.65,31.72,9.953,
02/07/2025,12:26:30.08,5.86,979.49,215.33,-29.99,2.25,-43.67,-28.20,65.55,5.70,31.77,9.953,
02/07/2025,12:26:30.18,44.43,985.35,196.29,-61.45,23.24,-70.99,-23.10,67.20,7.20,31.72,9.953,
02/07/2025,12:26:30.28,-265.63,747.07,317.87,-59.45,61.61,-65.40,-15.60,66.90,12.45,31.53,9.953,
02/07/2025,12:26:30.38,-436.04,748.05,400.39,-15.03,52.69,-14.07,-11.70,67.20,15.15,31.48,9.953,
02/07/2025,12:26:30.48,-169.43,1233.89,429.69,-46.92,31.47,93.34,-11.55,63.90,16.35,31.53,9.953,
02/07/2025,12:26:30.58,-516.11,755.86,412.11,51.31,3.37,-73.92,-7.35,65.55,11.85,31.72,9.954,
02/07/2025,12:26:30.68,-654.79,744.14,291.99,30.73,-11.78,-37.49,-5.25,63.90,8.70,31.48,9.954,
02/07/2025,12:26:30.78,-561.52,767.58,194.34,0.08,50.55,-59.54,-1.20,63.15,5.10,31.67,9.954,
02/07/2025,12:26:30.88,-646.00,693.85,141.11,-13.32,106.37,-52.04,3.30,60.75,5.70,31.48,9.951,
02/07/2025,12:26:30.98,-728.52,567.38,-50.78,-24.73,115.65,-59.43,5.25,58.65,2.25,31.24,9.952,
02/07/2025,12:26:31.08,-770.51,488.28,-177.25,-30.66,102.53,-50.56,7.65,56.10,1.05,31.38,9.952,
02/07/2025,12:26:31.19,-773.93,423.83,-275.88,-21.55,115.01,-79.22,9.0,55.20,0.45,31.67,9.952,
02/07/2025,12:26:31.29,-781.74,324.22,-454.10,-29.58,135.52,-76.47,10.65,55.80,0.60,31.48,9.952,
02/07/2025,12:26:31.39,-741.21,136.23,-595.21,-6.29,116.87,-86.95,16.65,56.25,-0.90,31.67,9.952,
02/07/2025,12:26:31.49,-718.26,115.72,-750.49,5.66,81.04,-72.75,23.25,54.0,-3.0,31.72,9.952,
02/07/2025,12:26:31.59,-741.21,-9.28,-790.53,1.50,64.53,-63.84,26.55,49.80,-4.80,31.67,9.952,
02/07/2025,12:26:31.69,-621.58,-114.75,-824.22,40.08,42.18,-14.08,30.15,46.95,-9.60,31.67,9.952,
02/07/2025,12:26:31.79,-532.23,-30.27,-828.13,39.24,13.81,7.44,31.80,45.30,-12.45,31.38,9.952,
02/07/2025,12:26:31.89,-416.99,-105.47,-889.16,37.67,41.0,-2.24,30.45,43.65,-17.25,31.48,9.953,
02/07/2025,12:26:31.99,-553.71,-238.77,-859.38,49.07,69.66,55.67,29.40,43.65,-21.60,31.72,9.953,
02/07/2025,12:26:32.09,-329.59,-161.62,-983.40,-14.86,12.46,50.34,24.60,45.90,-25.50,31.67,9.953,
02/07/2025,12:26:32.19,-342.29,-125.98,-958.98,-38.77,9.96,4.75,24.15,49.65,-23.10,31.53,9.953,
02/07/2025,12:26:32.29,-202.64,-44.43,-1024.41,2.87,15.76,14.53,23.25,51.30,-23.55,31.38,9.951,
02/07/2025,12:26:32.39,-222.66,-86.91,-865.72,8.82,-20.64,27.61,22.35,49.65,-24.15,31.53,9.951,
02/07/2025,12:26:32.49,-460.45,-27.34,-1081.05,-11.47,-1.31,2.79,21.60,50.85,-23.70,31.67,9.951,
02/07/2025,12:26:32.59,-302.73,-127.44,-874.02,19.26,23.64,48.99,20.70,52.20,-24.0,31.67,9.951,
02/07/2025,12:26:32.70,-176.76,-86.91,-884.28,-27.05,102.19,56.79,16.35,52.50,-28.20,31.53,9.951,
02/07/2025,12:26:32.80,-234.86,96.68,-1115.72,-31.66,141.11,-8.86,9.75,55.95,-33.0,31.53,9.951,
02/07/2025,12:26:32.90,81.05,265.63,-887.21,22.60,66.99,-37.08,4.35,55.05,-34.95,31.72,9.951,
02/07/2025,12:26:33.00,148.44,-83.50,-1192.87,28.18,-51.05,26.41,3.45,52.95,-35.10,31.58,9.952,
02/07/2025,12:26:33.10,82.03,-51.27,-1208.50,-22.47,-46.24,43.69,5.10,54.60,-33.90,31.58,9.952,
02/07/2025,12:26:33.20,31.74,69.82,-1089.36,-37.17,-0.04,12.05,4.20,54.75,-31.50,31.58,9.952,
02/07/2025,12:26:33.30,-62.99,33.20,-1020.02,-21.01,17.18,7.63,1.95,53.25,-30.75,31.38,9.952,
02/07/2025,12:26:33.40,166.50,121.58,-1110.35,-59.01,37.66,-23.32,-0.45,54.0,-27.90,31.38,9.952,
02/07/2025,12:26:33.50,129.39,156.25,-836.91,-56.63,-11.39,4.98,-2.10,55.35,-26.70,31.58,9.952,
02/07/2025,12:26:33.60,121.09,360.35,-772.46,-91.73,-7.08,13.88,-4.95,55.20,-25.35,31.38,9.952,
02/07/2025,12:26:33.70,123.54,514.65,-726.07,-117.54,-1.47,-22.71,-3.90,60.30,-23.10,31.53,9.952,
02/07/2025,12:26:33.80,140.14,678.71,-629.39,-123.81,15.28,-9.69,-4.20,64.35,-16.65,31.72,9.950,
02/07/2025,12:26:33.90,-21.00,865.23,-407.71,-94.60,21.75,-15.69,-3.60,68.25,-9.30,31.48,9.950,
02/07/2025,12:26:34.00,82.03,859.86,-319.82,-41.60,15.40,2.18,-0.90,70.35,-4.80,31.53,9.950,
02/07/2025,12:26:34.11,71.29,901.37,-262.70,-42.66,-10.20,-9.02,-0.45,70.35,-1.95,31.67,9.950,
02/07/2025,12:26:34.21,-27.34,837.89,-187.50,-37.34,-50.81,-10.83,0.15,71.10,2.70,31.38,9.951,
02/07/2025,12:26:34.31,38.09,988.77,-181.15,-20.55,-47.86,3.35,-0.15,70.80,5.10,31.38,9.951,
02/07/2025,12:26:34.41,195.31,957.52,-95.70,-19.25,-30.42,4.11,-0.30,70.20,6.75,31.48,9.951,
02/07/2025,12:26:34.51,19.53,955.57,-98.14,0.90,-23.56,0.08,-0.45,69.15,7.65,31.67,9.951,
02/07/2025,12:26:34.61,71.78,955.57,-185.06,-0.60,-24.43,1.98,-0.90,68.40,6.90,31.67,9.951,
02/07/2025,12:26:34.71,-15.14,1037.60,-85.94,-4.65,-13.61,4.88,-1.35,69.75,8.25,31.67,9.951,
02/07/2025,12:26:34.81,-51.27,889.16,-176.76,-5.02,10.44,5.16,-0.60,67.50,8.25,31.38,9.951,
02/07/2025,12:26:34.91,47.36,985.35,-125.0,-9.08,-2.91,13.49,-2.85,69.0,8.25,31.48,9.951,
02/07/2025,12:26:35.01,105.96,977.54,-81.05,-22.31,5.87,0.67,-1.65,68.40,9.45,31.72,9.951,
02/07/2025,12:26:35.11,-8.79,954.10,-26.86,-34.0,-1.22,6.06,-2.85,69.75,9.60,31.53,9.952,
02/07/2025,12:26:35.21,48.83,1036.13,11.23,-39.95,-11.09,12.10,-4.50,66.60,14.85,31.38,9.949,
02/07/2025,12:26:35.31,186.52,949.71,133.79,-35.08,-9.26,8.91,-4.35,68.70,16.20,31.38,9.950,
02/07/2025,12:26:35.41,1443.85,1999.94,-2000.0,41.67,-31.10,13.16,-3.30,66.30,18.30,31.24,9.950,
02/07/2025,12:26:35.51,6.84,1016.60,142.58,-3.29,0.91,5.25,-4.95,65.85,18.45,31.34,9.950,
02/07/2025,12:26:35.62,51.76,1030.76,123.54,-31.10,-10.32,10.23,-5.70,66.60,19.95,31.58,9.950,
02/07/2025,12:26:35.72,131.35,837.40,320.80,-22.40,5.40,-2.11,-5.10,65.55,23.10,31.48,9.950,
02/07/2025,12:26:35.82,55.66,991.21,331.05,14.11,12.29,10.58,-5.40,64.80,21.90,31.67,9.950,
02/07/2025,12:26:35.92,26.37,1024.90,575.20,19.01,12.24,43.93,-5.85,65.25,22.35,31.34,9.950,
02/07/2025,12:26:36.02,514.16,775.39,54.69,33.16,-0.59,21.84,-9.0,66.90,20.25,31.67,9.950,
02/07/2025,12:26:36.12,325.68,908.20,102.05,14.87,-1.24,-37.49,-9.15,68.25,18.30,31.58,9.950,
02/07/2025,12:26:36.22,-1.95,944.34,28.32,18.95,-4.24,-36.77,-5.85,67.20,16.50,31.53,9.951,
02/07/2025,12:26:36.32,49.32,958.50,66.41,0.51,4.08,-10.94,-5.40,68.70,16.95,31.53,9.951,
02/07/2025,12:26:36.42,9.77,879.39,204.10,6.40,13.63,-17.98,-3.75,66.15,16.65,31.38,9.951,
02/07/2025,12:26:36.52,172.85,960.45,-57.62,27.02,-7.66,-1.15,-4.65,68.70,15.15,31.34,9.951,
02/07/2025,12:26:36.62,-96.19,970.21,16.60,42.83,7.64,-17.11,-3.75,69.60,11.70,31.48,9.951,
02/07/2025,12:26:36.72,48.34,993.65,-164.55,16.56,-0.72,-23.39,-1.95,70.35,12.0,31.53,9.949,
02/07/2025,12:26:36.82,-49.32,1023.93,-80.57,-10.81,-0.78,-14.97,-0.90,69.15,9.90,31.48,9.949,
02/07/2025,12:26:36.92,-16.11,943.85,-17.09,-4.19,13.57,-10.89,1.20,68.10,10.95,31.67,9.949,
02/07/2025,12:26:37.03,-74.22,1003.42,-42.48,0.79,2.48,0.20,1.05,68.25,11.10,31.38,9.949,
02/07/2025,12:26:37.13,-93.75,982.42,-54.69,-15.34,-1.40,-2.10,1.20,68.85,12.0,31.67,9.949,
02/07/2025,12:26:37.23,-48.83,974.12,22.46,-15.51,-4.15,3.15,0.60,68.70,13.95,31.48,9.950,
02/07/2025,12:26:37.33,-50.29,913.09,101.56,7.47,-5.32,-5.37,1.20,67.35,14.85,31.38,9.950,
02/07/2025,12:26:37.43,-100.10,982.91,41.50,27.95,-9.15,-10.15,1.35,68.25,13.65,31.58,9.950,
02/07/2025,12:26:37.53,-93.75,1045.90,-61.04,17.61,-18.31,-7.08,1.65,68.10,11.25,31.34,9.950,
02/07/2025,12:26:37.63,-117.19,867.68,4.88,-5.69,-38.74,6.85,0.60,68.25,11.85,31.34,9.950,
02/07/2025,12:26:37.73,-24.41,1003.91,171.88,20.02,-21.60,-3.11,0.15,68.85,12.45,31.38,9.950,
02/07/2025,12:26:37.83,-1.46,1009.28,-116.21,9.13,-3.95,-9.31,-0.60,67.95,11.55,31.58,9.950,
02/07/2025,12:26:37.93,-147.46,1075.20,-199.22,-4.20,2.92,-8.37,0.30,67.20,10.05,31.48,9.950,
02/07/2025,12:26:38.03,-28.32,1004.88,-81.05,-18.42,-4.14,-4.02,1.20,68.40,9.45,31.38,9.950,
02/07/2025,12:26:38.13,-112.79,968.26,35.64,-15.78,9.28,9.47,0.30,67.95,11.55,31.58,9.948,
02/07/2025,12:26:38.23,-151.86,988.77,39.55,-16.45,-3.71,5.71,0.30,67.95,13.35,31.53,9.949,
02/07/2025,12:26:38.33,-67.38,968.75,57.13,3.84,-5.0,4.66,0.60,67.95,13.65,31.67,9.949,
02/07/2025,12:26:38.43,-101.56,987.30,-36.13,13.85,-18.47,-0.68,-1.35,66.30,12.90,31.48,9.949,
02/07/2025,12:26:38.54,-82.03,978.52,67.87,2.79,-14.40,-3.38,-1.95,67.35,13.50,31.58,9.949,
02/07/2025,12:26:38.64,-43.46,989.26,-56.64,-9.41,-18.87,3.32,-1.65,66.90,12.45,31.38,9.949,
02/07/2025,12:26:38.74,-67.38,1003.42,-36.62,-16.66,-15.85,-0.21,-0.60,67.95,13.65,31.48,9.949,
02/07/2025,12:26:38.84,-41.02,936.52,48.83,-5.32,-9.67,-7.09,-1.35,66.75,14.70,31.14,9.949,
02/07/2025,12:26:38.94,-97.66,999.51,14.16,-1.02,-2.66,5.63,-2.10,67.95,15.15,31.19,9.949,
02/07/2025,12:26:39.04,-67.87,978.03,54.20,0.44,-2.80,5.09,-3.0,66.15,15.60,31.53,9.949,
02/07/2025,12:26:39.14,-42.97,975.10,36.13,1.25,-5.75,-1.81,-1.80,68.25,15.45,31.53,9.949,
02/07/2025,12:26:39.24,-43.46,970.70,52.25,3.85,-4.32,-3.52,-1.80,67.95,16.20,31.58,9.950,
02/07/2025,12:26:39.34,-156.25,923.34,83.01,9.91,-8.38,-3.15,-2.70,68.10,16.35,31.48,9.950,
02/07/2025,12:26:39.44,-26.86,994.14,-1.95,17.39,-30.63,-9.25,-2.70,70.05,14.55,31.58,9.950,
02/07/2025,12:26:39.54,-74.71,1017.58,-33.69,7.89,-14.79,-6.31,-2.70,69.15,14.25,31.48,9.950,
02/07/2025,12:26:39.64,-100.10,1017.58,-42.48,-2.29,-2.71,-0.58,-1.95,69.15,15.60,31.53,9.948,
02/07/2025,12:26:39.74,-31.74,966.80,11.23,-9.51,0.87,-0.76,-2.85,68.25,13.35,31.34,9.948,
02/07/2025,12:26:39.84,-92.77,980.47,17.58,-16.13,5.07,-2.60,-2.55,69.75,14.70,31.34,9.948,
02/07/2025,12:26:39.94,-104.98,961.43,71.78,-6.76,3.15,-1.01,-1.20,68.10,17.10,31.24,9.948,
02/07/2025,12:26:40.05,-76.17,966.31,66.41,-5.80,3.07,6.35,-3.60,69.75,16.95,31.38,9.948,
02/07/2025,12:26:40.15,-65.92,961.91,94.24,-1.05,1.79,5.47,-3.75,69.15,15.60,31.24,9.948,
02/07/2025,12:26:40.25,-53.71,968.26,91.80,0.66,-0.87,1.85,-3.30,68.70,17.55,31.67,9.949,
02/07/2025,12:26:40.35,-44.43,989.26,51.27,1.81,-1.03,0.34,-4.35,67.95,16.95,31.38,9.949,
02/07/2025,12:26:40.45,-70.31,958.50,62.50,1.71,1.50,-3.92,-4.65,68.25,18.0,31.67,9.949,
02/07/2025,12:26:40.55,-69.34,960.94,60.06,4.31,1.35,1.49,-3.60,69.45,17.55,31.48,9.949,
02/07/2025,12:26:40.65,-32.23,993.65,66.41,-0.34,-2.02,4.18,-2.85,68.70,17.25,31.38,9.949,
02/07/2025,12:26:40.75,-2.44,977.05,69.82,-1.20,-1.28,3.21,-2.70,68.10,17.85,31.48,9.949,
02/07/2025,12:26:40.85,-24.90,951.17,81.05,-3.40,0.15,0.27,-4.35,67.20,16.95,31.53,9.949,
02/07/2025,12:26:40.95,-35.16,949.71,86.43,0.18,-2.98,-1.77,-4.65,67.50,16.20,31.38,9.949,
02/07/2025,12:26:41.05,-31.25,948.73,72.27,4.08,-0.74,-5.91,-4.35,68.70,17.55,31.38,9.947,
02/07/2025,12:26:41.15,-54.69,965.33,63.48,3.87,-0.95,-6.55,-3.90,68.25,15.45,31.14,9.948,
02/07/2025,12:26:41.25,-54.20,989.75,39.55,2.38,0.02,-2.27,-3.75,68.10,16.65,31.34,9.948,
02/07/2025,12:26:41.35,-62.99,968.75,57.62,0.37,1.18,-0.81,-3.90,68.25,16.50,31.38,9.948,
02/07/2025,12:26:41.46,-66.41,977.54,53.71,4.56,1.65,-2.63,-3.75,67.35,15.60,31.38,9.948,
02/07/2025,12:26:41.56,-57.62,980.96,15.14,4.22,1.60,-3.0,-3.45,66.90,13.50,31.24,9.948,
02/07/2025,12:26:41.66,-59.08,979.00,22.46,6.28,2.05,-1.63,-2.55,68.70,14.40,31.48,9.948,
02/07/2025,12:26:41.76,-61.52,974.12,21.48,2.60,-1.89,-1.18,-3.90,67.95,13.65,31.19,9.948,
02/07/2025,12:26:41.86,-62.99,969.73,28.32,-0.44,1.27,-1.11,-2.70,69.15,14.85,31.38,9.948,
02/07/2025,12:26:41.96,-71.29,973.14,31.25,0.41,0.34,0.03,-3.60,67.20,13.95,31.48,9.948,
02/07/2025,12:26:42.06,-74.71,962.40,40.04,2.12,-0.30,-3.17,-3.90,69.0,15.15,31.38,9.948,
02/07/2025,12:26:42.16,-57.13,971.68,39.06,0.42,1.22,-0.14,-3.60,68.70,15.15,31.34,9.949,
02/07/2025,12:26:42.26,-54.20,975.59,19.53,3.23,1.28,-2.85,-3.45,68.85,14.25,31.24,9.949,
02/07/2025,12:26:42.36,-64.45,971.19,5.86,0.75,-0.92,1.76,-3.0,67.65,14.55,31.38,9.949,
02/07/2025,12:26:42.46,-78.61,971.68,30.76,0.27,1.66,-1.86,-4.20,67.35,14.55,31.19,9.949,
02/07/2025,12:26:42.56,-54.69,970.21,12.21,0.58,2.87,0.69,-3.60,67.95,13.65,31.24,9.947,
02/07/2025,12:26:42.66,-83.01,971.68,14.65,0.83,2.34,0.25,-2.85,67.95,13.65,31.19,9.947,
02/07/2025,12:26:42.76,-74.22,984.38,13.67,0.59,0.84,-0.73,-3.45,68.85,13.05,31.53,9.947,
02/07/2025,12:26:42.86,-64.94,977.54,15.14,2.20,0.49,1.46,-1.80,68.25,13.95,31.48,9.947,
02/07/2025,12:26:42.97,-59.08,979.98,3.42,-0.61,0.98,2.30,-3.45,67.65,14.85,31.67,9.947,
02/07/2025,12:26:43.07,-76.17,983.40,14.65,1.82,-0.07,0.05,-2.10,67.50,13.65,31.58,9.948,
02/07/2025,12:26:43.17,-72.75,982.42,12.70,0.99,0.45,-2.04,-3.30,66.75,13.35,31.48,9.948,
02/07/2025,12:26:43.27,-65.92,972.66,13.18,-1.27,1.14,-1.46,-3.60,67.95,13.95,31.38,9.948,
02/07/2025,12:26:43.37,-74.71,970.21,28.81,0.55,1.44,0.66,-3.90,68.70,13.95,31.24,9.948,
02/07/2025,12:26:43.47,-45.41,977.54,19.53,0.79,2.40,-0.19,-4.20,68.10,14.85,31.24,9.948,
02/07/2025,12:26:43.57,-64.45,980.47,23.44,1.76,-1.83,-0.75,-3.0,66.90,14.85,31.24,9.948,
02/07/2025,12:26:43.67,-57.62,976.07,6.35,1.23,2.47,-0.70,-4.95,66.90,13.50,31.48,9.948,
02/07/2025,12:26:43.77,-64.94,976.56,33.69,1.18,0.57,0.66,-3.30,67.50,15.15,31.38,9.948,
02/07/2025,12:26:43.87,-41.02,971.68,33.20,0.85,2.16,-0.05,-1.95,68.40,13.80,31.38,9.948,
02/07/2025,12:26:43.97,-63.48,979.98,35.64,-0.01,-0.27,-2.37,-5.70,68.40,14.55,31.34,9.948,
02/07/2025,12:26:44.07,-34.67,979.98,20.02,0.49,5.0,-0.18,-3.0,67.65,13.80,31.34,9.947,
02/07/2025,12:26:44.17,13.18,980.96,3.91,-2.12,30.64,2.31,-3.0,67.65,14.55,31.53,9.947,
02/07/2025,12:26:44.27,24.90,970.70,5.86,-7.0,78.22,7.21,-3.30,67.50,14.70,31.38,9.947,
02/07/2025,12:26:44.38,-69.34,963.87,24.41,-3.95,70.39,-6.76,-1.65,68.40,15.30,31.38,9.947,
02/07/2025,12:26:44.48,-139.65,973.14,39.06,0.69,45.85,-0.50,1.05,68.25,13.35,31.38,9.947,
02/07/2025,12:26:44.58,-101.56,981.93,39.55,1.54,25.22,1.29,0.90,67.65,13.80,31.38,9.947,
02/07/2025,12:26:44.68,-78.13,978.52,38.09,1.31,16.75,-2.24,2.55,67.20,14.70,31.14,9.947,
02/07/2025,12:26:44.78,-105.96,962.40,32.71,1.69,5.27,-3.50,1.95,68.10,14.55,31.14,9.947,
02/07/2025,12:26:44.88,-68.36,973.63,26.37,1.51,-3.02,2.18,1.65,68.10,14.25,31.53,9.947,
02/07/2025,12:26:44.98,-92.77,960.45,41.50,0.89,-5.99,-7.35,1.80,67.50,14.40,31.38,9.948,
02/07/2025,12:26:45.08,-130.37,965.82,39.55,1.26,-6.02,-1.97,1.95,67.35,14.85,31.48,9.948,
02/07/2025,12:26:45.18,-89.36,970.21,29.30,3.89,-12.45,-5.44,2.25,66.15,15.30,31.34,9.948,
02/07/2025,12:26:45.28,-126.95,968.75,14.16,4.05,-15.56,-3.69,2.55,67.20,13.35,31.38,9.948,
02/07/2025,12:26:45.38,-151.37,969.73,4.88,3.95,-21.53,-5.55,2.25,68.85,15.30,31.14,9.948,
02/07/2025,12:26:45.48,-138.18,960.45,27.83,3.73,-35.50,1.60,2.10,68.70,13.65,31.38,9.948,
02/07/2025,12:26:45.58,-97.17,978.03,23.93,2.18,-38.11,0.32,1.95,66.90,14.25,31.53,9.946,
02/07/2025,12:26:45.68,-88.38,973.14,29.79,2.52,-29.58,-1.47,0.30,66.30,15.15,31.48,9.946,
02/07/2025,12:26:45.78,-99.12,963.38,30.76,1.85,-21.37,-3.77,0.0,67.20,15.15,31.24,9.947,
02/07/2025,12:26:45.89,-120.61,978.03,32.23,2.82,-11.50,0.47,-0.15,67.65,14.25,31.24,9.947,
02/07/2025,12:26:45.99,-136.72,961.43,38.09,0.84,-15.59,1.02,0.15,65.85,14.55,31.24,9.947,
02/07/2025,12:26:46.09,-86.43,965.82,30.76,-0.44,-17.45,-2.75,-1.20,67.35,14.25,31.19,9.947,
02/07/2025,12:26:46.19,-104.00,957.52,37.60,5.64,-6.66,3.83,-0.60,67.50,13.65,31.24,9.947,
02/07/2025,12:26:46.29,-77.64,978.52,27.83,3.85,-5.04,2.24,-1.95,68.10,14.55,31.24,9.947,
02/07/2025,12:26:46.39,-87.40,966.80,14.65,1.05,-1.39,-4.30,-0.90,68.40,14.55,31.38,9.947,
02/07/2025,12:26:46.49,-110.84,975.59,20.02,0.85,2.17,-3.69,-1.80,67.50,13.95,31.38,9.947,
02/07/2025,12:26:46.59,-119.14,973.14,20.02,2.82,2.10,-3.44,-1.95,67.65,13.05,31.48,9.947,
02/07/2025,12:26:46.69,-133.79,969.24,24.41,0.86,-0.18,-0.98,-0.60,66.75,13.95,31.24,9.947,
02/07/2025,12:26:46.79,-128.42,969.24,20.51,2.25,1.18,-0.60,-1.35,66.75,13.65,31.48,9.947,
02/07/2025,12:26:46.89,-139.65,978.03,11.23,3.56,-7.44,2.44,-2.85,68.25,14.40,31.38,9.948,
02/07/2025,12:26:46.99,-89.36,975.10,1.95,1.88,-5.50,3.70,-2.10,69.0,13.35,31.24,9.946,
02/07/2025,12:26:47.09,-109.38,966.80,17.58,1.46,0.23,-1.11,-1.95,68.10,12.75,31.14,9.946,
02/07/2025,12:26:47.19,-99.61,972.17,3.91,2.41,-3.89,0.20,-3.45,66.90,12.75,31.38,9.946,
02/07/2025,12:26:47.30,-96.19,974.12,4.88,1.27,-2.40,0.99,-1.05,66.75,13.65,31.24,9.946,
02/07/2025,12:26:47.40,-102.05,973.63,-6.84,3.95,-0.02,1.48,-1.80,67.20,12.90,31.38,9.946,
02/07/2025,12:26:47.50,-98.14,967.77,-12.70,4.27,-1.74,-0.36,-1.80,68.25,12.90,31.38,9.946,
02/07/2025,12:26:47.60,-64.94,983.40,-21.00,3.72,-1.30,0.89,-2.10,67.20,13.35,31.24,9.946,
02/07/2025,12:26:47.70,-67.38,970.21,-12.70,1.57,1.42,-2.44,-1.95,68.85,12.45,31.24,9.947,
02/07/2025,12:26:47.80,-109.86,971.19,-41.50,5.52,1.69,-8.94,-1.05,67.50,12.15,31.38,9.947,
02/07/2025,12:26:47.90,-161.13,994.14,-56.15,1.02,-3.30,-5.75,-1.95,66.60,12.45,31.48,9.947,
02/07/2025,12:26:48.00,-106.45,981.93,9.28,-9.66,0.11,-2.74,-1.65,68.10,13.80,31.24,9.947,
02/07/2025,12:26:48.10,-157.71,945.31,33.20,0.47,8.50,-5.53,-1.35,67.20,13.95,31.53,9.947,
02/07/2025,12:26:48.20,-144.04,960.45,-15.14,4.39,3.36,5.53,-0.45,68.10,12.45,31.48,9.947,
02/07/2025,12:26:48.30,-79.10,953.61,0.98,3.27,1.19,-0.13,-0.45,68.40,13.05,31.34,9.947,
02/07/2025,12:26:48.40,-126.95,951.17,-8.30,4.24,3.04,-1.69,-1.35,67.95,13.35,31.14,9.947,
02/07/2025,12:26:48.50,-133.30,975.59,-40.53,8.89,1.38,-2.99,-0.15,66.90,12.75,31.14,9.946,
02/07/2025,12:26:48.60,-115.23,954.10,-49.32,2.48,3.29,0.79,-2.10,69.0,12.15,31.53,9.946,
02/07/2025,12:26:48.70,-140.63,957.52,-47.85,0.14,2.41,1.50,-2.55,68.25,11.10,31.38,9.946,
02/07/2025,12:26:48.81,-136.23,964.36,-48.34,2.06,0.17,-0.47,-0.60,67.50,10.80,31.48,9.946,
02/07/2025,12:26:48.91,-109.38,972.66,-37.60,-3.56,-0.53,-3.11,-1.05,67.95,12.90,31.38,9.946,
02/07/2025,12:26:49.01,-147.95,961.91,-6.84,-0.41,0.34,-0.49,0.0,67.95,12.15,31.48,9.946,
02/07/2025,12:26:49.11,-128.91,955.08,4.39,0.50,-1.76,0.47,-0.15,68.40,12.45,31.19,9.946,
02/07/2025,12:26:49.21,-124.51,967.77,1.95,0.15,1.18,0.36,-1.35,69.45,13.35,31.38,9.946,
02/07/2025,12:26:49.31,-106.93,968.26,-5.86,3.98,-0.24,-3.67,-0.45,68.40,13.05,31.34,9.946,
02/07/2025,12:26:49.41,-131.84,972.66,-39.06,3.21,0.53,-0.28,-1.20,67.65,12.0,31.34,9.946,
02/07/2025,12:26:49.51,-135.25,978.52,-72.75,3.32,-1.47,-0.13,-0.45,66.90,12.0,31.19,9.947,
02/07/2025,12:26:49.61,-107.91,971.19,-38.57,-1.47,0.92,-1.34,-2.10,67.95,12.15,31.24,9.947,
02/07/2025,12:26:49.71,-137.70,987.30,2.44,-6.09,5.34,-0.26,-0.60,68.70,12.90,31.34,9.947,
02/07/2025,12:26:49.81,-174.80,964.36,14.65,1.33,1.60,-4.0,-2.10,69.0,14.70,31.34,9.947,
02/07/2025,12:26:49.91,-121.09,933.59,-12.70,4.11,-2.53,-0.75,-0.30,67.20,13.35,31.14,9.945,
02/07/2025,12:26:50.01,-174.32,978.03,-83.98,4.63,3.89,-0.70,-0.30,68.25,13.65,31.19,9.945,
02/07/2025,12:26:50.11,-167.48,998.05,-57.62,-2.33,6.69,7.15,-1.80,67.50,12.90,31.24,9.945,
02/07/2025,12:26:50.21,-101.07,970.21,-36.13,-7.22,7.53,6.92,-0.60,67.50,13.65,31.14,9.945,
02/07/2025,12:26:50.32,-112.79,968.75,-5.37,-7.59,8.74,3.96,0.60,68.25,13.35,31.38,9.946,
02/07/2025,12:26:50.42,-88.38,945.31,-0.49,-3.66,3.47,-2.43,-0.90,69.15,16.05,31.38,9.946,
02/07/2025,12:26:50.52,-99.61,958.50,-21.00,-1.35,3.41,-1.97,-1.05,68.70,15.15,31.38,9.946,
02/07/2025,12:26:50.62,-105.96,949.22,-56.64,-0.27,0.75,-5.03,-0.45,70.05,16.05,31.24,9.946,
02/07/2025,12:26:50.72,-140.14,959.96,-20.02,-7.72,3.83,-5.19,-0.30,68.25,15.75,31.53,9.946,
02/07/2025,12:26:50.82,-173.83,968.26,43.46,-5.85,5.04,-0.06,0.60,69.0,17.25,31.38,9.946,
02/07/2025,12:26:50.92,-157.23,964.36,68.85,-6.31,2.94,4.73,0.60,69.45,18.0,31.38,9.946,
02/07/2025,12:26:51.02,-88.87,955.08,110.35,-1.49,-2.94,8.11,0.90,69.15,17.40,31.38,9.946,
02/07/2025,12:26:51.12,-48.83,936.04,80.57,4.78,-0.96,-2.33,0.0,69.45,19.05,31.14,9.946,
02/07/2025,12:26:51.22,-92.29,978.52,55.18,6.48,3.33,-2.21,-1.05,69.75,19.05,31.14,9.946,
02/07/2025,12:26:51.32,-118.16,1003.91,74.22,1.71,-3.25,-2.0,0.45,69.60,18.45,31.05,9.946,
02/07/2025,12:26:51.42,-79.10,983.40,74.71,2.51,-8.66,0.60,0.60,69.75,19.35,31.34,9.945,
02/07/2025,12:26:51.52,-57.13,965.33,78.13,-0.55,-5.39,0.24,-0.30,70.50,19.05,31.24,9.945,
02/07/2025,12:26:51.62,-88.87,928.22,69.34,5.47,0.63,-7.36,0.45,69.60,17.40,31.24,9.945,
02/07/2025,12:26:51.73,-116.70,969.24,-8.79,9.27,-3.57,-5.78,-0.45,69.60,18.15,31.38,9.945,
02/07/2025,12:26:51.83,-133.30,963.87,-6.84,3.54,-0.14,-6.21,1.65,69.60,14.85,31.24,9.945,
02/07/2025,12:26:51.93,-149.90,969.24,-12.21,5.79,4.11,-4.08,0.30,69.0,18.30,31.38,9.945,
02/07/2025,12:26:52.03,-135.25,992.19,-31.25,3.13,-0.30,1.60,0.90,71.10,17.10,31.38,9.945,
02/07/2025,12:26:52.13,-110.84,958.50,22.46,-2.04,-2.34,-1.95,0.45,69.15,16.35,31.19,9.946,
02/07/2025,12:26:52.23,-120.12,972.66,0.98,5.17,1.40,-0.09,-0.15,69.60,16.35,31.24,9.946,
02/07/2025,12:26:52.33,-132.32,972.17,0.98,1.31,2.77,-6.74,1.95,69.60,14.55,31.38,9.946,
02/07/2025,12:26:52.43,-156.25,965.82,10.25,-0.03,1.88,-3.27,1.20,69.60,16.05,31.00,9.946,
02/07/2025,12:26:52.53,-154.30,960.94,-1.95,2.68,-0.99,-4.49,2.10,70.20,17.25,31.00,9.946,
02/07/2025,12:26:52.63,-184.08,954.59,-6.35,5.18,-3.93,-2.13,0.90,70.35,15.60,31.05,9.946,
02/07/2025,12:26:52.73,-155.76,947.75,-16.11,3.72,-3.81,-6.81,2.10,69.45,15.75,31.48,9.946,
02/07/2025,12:26:52.83,-170.90,957.52,-1.46,5.73,3.52,-5.08,1.80,68.70,15.45,31.14,9.945,
02/07/2025,12:26:52.93,-173.83,933.59,-21.48,7.41,5.04,-1.89,1.65,68.40,14.85,31.34,9.945,
02/07/2025,12:26:53.03,-180.18,966.80,-75.68,10.0,3.24,-3.76,1.80,68.70,12.90,31.38,9.945,
02/07/2025,12:26:53.13,-190.92,942.87,-100.10,11.85,3.08,-4.02,2.70,70.80,12.0,31.14,9.945,
02/07/2025,12:26:53.24,-204.59,954.59,-116.21,9.17,-0.98,-2.08,3.0,68.40,12.75,31.38,9.945,
02/07/2025,12:26:53.34,-135.74,959.96,-149.90,14.15,1.26,2.22,2.10,69.45,11.10,31.38,9.945,
02/07/2025,12:26:53.44,-167.97,963.38,-143.55,1.57,0.14,3.98,1.95,68.40,9.15,31.38,9.945,
02/07/2025,12:26:53.54,-203.13,957.03,-137.70,2.56,-1.21,-5.67,1.95,68.85,8.40,31.19,9.945,
02/07/2025,12:26:53.64,-192.87,986.33,-146.48,-12.81,-5.03,-0.91,1.20,67.65,9.15,31.34,9.945,
02/07/2025,12:26:53.74,-153.32,938.48,-90.33,-7.30,-2.34,-0.24,1.20,68.10,10.20,31.14,9.945,
02/07/2025,12:26:53.84,-188.48,946.29,-75.68,0.15,-2.66,0.86,0.30,68.70,11.55,31.38,9.945,
02/07/2025,12:26:53.94,-174.80,980.96,-83.01,2.07,0.83,-0.88,1.35,68.25,11.85,31.19,9.946,
02/07/2025,12:26:54.04,-173.83,946.29,-62.01,-1.03,-1.67,2.62,0.90,67.35,12.45,31.14,9.946,
02/07/2025,12:26:54.14,-147.46,979.00,-74.71,0.02,0.53,-2.41,1.35,68.25,11.55,31.05,9.946,
02/07/2025,12:26:54.24,-164.55,937.99,-67.38,1.50,0.25,-2.09,2.25,69.60,11.25,31.38,9.946,
02/07/2025,12:26:54.34,-172.85,959.96,-92.29,4.59,-0.24,-0.70,1.35,69.75,11.85,31.24,9.946,
02/07/2025,12:26:54.44,-158.69,939.45,-43.46,-0.80,1.25,-1.20,1.65,68.40,10.95,31.19,9.944,
02/07/2025,12:26:54.54,-170.41,967.77,-94.24,0.20,-1.67,-0.71,1.65,69.15,10.95,31.38,9.944,
02/07/2025,12:26:54.64,-165.04,965.33,-60.06,-0.92,-3.15,-2.96,1.80,68.25,12.15,31.38,9.945,
02/07/2025,12:26:54.75,-183.11,953.61,-67.38,0.66,0.68,-2.30,2.55,67.20,12.90,31.34,9.945,
02/07/2025,12:26:54.85,-191.89,950.20,-71.29,3.26,-2.33,-3.61,2.10,67.50,12.15,31.14,9.945,
02/07/2025,12:26:54.95,-172.85,953.61,-65.92,0.15,1.69,1.65,2.70,68.10,12.75,31.38,9.945,
02/07/2025,12:26:55.05,-157.23,958.01,-60.06,4.75,-1.80,1.53,0.45,67.65,12.45,31.05,9.945,
02/07/2025,12:26:55.15,-170.90,960.94,-84.96,3.32,3.14,-2.85,1.20,68.40,11.70,31.14,9.945,
02/07/2025,12:26:55.25,-187.99,958.01,-85.45,2.97,1.21,-0.88,2.10,68.70,10.80,30.95,9.945,
02/07/2025,12:26:55.35,-176.27,957.52,-86.43,0.44,-0.78,-2.26,2.85,70.50,10.80,31.34,9.945,
02/07/2025,12:26:55.45,-200.20,948.73,-89.84,0.85,-0.35,-2.18,1.05,69.45,12.15,31.14,9.945,
02/07/2025,12:26:55.55,-183.11,947.75,-86.91,1.78,2.56,-2.95,1.05,69.0,12.15,31.19,9.945,
02/07/2025,12:26:55.65,-202.15,949.22,-66.89,3.73,0.76,-3.46,1.05,69.45,11.10,31.14,9.945,
02/07/2025,12:26:55.75,-186.52,958.98,-90.82,1.44,-0.03,0.01,2.55,67.50,11.85,31.24,9.946,
02/07/2025,12:26:55.85,-186.04,958.50,-96.68,2.07,0.41,0.46,1.95,69.15,11.25,31.38,9.944,
02/07/2025,12:26:55.95,-195.31,965.33,-90.82,1.25,1.73,-0.47,2.25,69.15,10.50,31.19,9.944,
02/07/2025,12:26:56.05,-184.57,948.24,-97.66,1.06,0.50,0.65,2.55,69.45,12.60,31.14,9.944,
02/07/2025,12:26:56.15,-174.32,956.54,-93.26,0.62,-1.45,-3.58,1.65,68.85,10.50,31.14,9.944,
02/07/2025,12:26:56.26,-184.57,947.75,-82.52,2.58,0.22,-0.60,2.25,67.65,10.95,31.38,9.944,
02/07/2025,12:26:56.36,-179.69,954.59,-97.17,-0.21,1.80,0.40,1.95,68.85,12.45,31.14,9.945,
02/07/2025,12:26:56.46,-196.78,946.29,-83.98,1.14,0.31,0.06,2.10,68.25,11.55,30.95,9.945,
02/07/2025,12:26:56.56,-176.27,946.78,-84.96,0.32,3.70,-0.92,2.55,68.70,10.80,31.24,9.945,
02/07/2025,12:26:56.66,-179.20,954.59,-93.75,1.56,-1.56,-1.55,1.80,69.0,11.55,31.34,9.945,
02/07/2025,12:26:56.76,-192.38,957.52,-87.89,0.19,0.66,-2.77,1.80,68.70,11.85,31.38,9.945,
02/07/2025,12:26:56.86,-182.13,959.96,-89.84,1.68,2.46,-0.63,2.70,68.40,10.95,31.38,9.945,
02/07/2025,12:26:56.96,-183.11,973.14,-102.54,-0.68,-0.64,-0.30,2.10,69.0,10.80,31.00,9.945,
02/07/2025,12:26:57.06,-187.99,948.24,-88.38,-0.84,-1.02,-1.37,1.35,67.95,10.35,31.19,9.945,
02/07/2025,12:26:57.16,-194.34,940.92,-76.17,-0.21,1.04,-3.27,2.10,68.70,12.90,31.14,9.945,
02/07/2025,12:26:57.26,-183.11,934.57,-69.82,-1.53,-0.87,-1.81,3.0,68.40,10.95,31.38,9.945,
02/07/2025,12:26:57.36,-184.08,955.08,-81.54,1.73,-1.11,1.05,3.0,69.15,10.95,31.19,9.944,
02/07/2025,12:26:57.46,-180.66,976.56,-96.68,1.76,2.76,-3.65,1.80,69.0,11.85,31.24,9.944,
02/07/2025,12:26:57.56,-200.20,947.27,-68.36,-1.56,2.21,-0.39,1.95,70.35,11.25,31.05,9.944,
02/07/2025,12:26:57.67,-190.92,958.01,-77.64,4.95,-3.78,-4.24,2.10,69.45,9.60,31.05,9.944,
02/07/2025,12:26:57.77,-177.73,955.57,-85.94,1.40,3.79,1.89,2.10,67.95,11.55,31.14,9.944,
02/07/2025,12:26:57.87,-166.50,957.52,-75.68,-1.21,3.36,-2.82,3.0,68.10,10.50,31.14,9.944,
02/07/2025,12:26:57.97,-177.25,969.24,-66.41,1.94,1.45,0.09,2.10,69.0,11.85,31.19,9.944,
02/07/2025,12:26:58.07,-180.18,959.96,-98.14,3.11,-2.52,-3.36,1.80,69.45,11.10,30.95,9.944,
02/07/2025,12:26:58.17,-183.59,949.71,-101.07,2.20,1.70,1.53,1.35,68.70,12.15,31.19,9.945,
02/07/2025,12:26:58.27,-188.48,949.22,-76.17,3.26,-1.64,1.01,1.65,69.15,11.25,31.24,9.945,
02/07/2025,12:26:58.37,-171.39,958.98,-116.21,0.09,1.60,0.49,1.80,69.0,12.15,31.34,9.945,
02/07/2025,12:26:58.47,-170.41,951.17,-86.91,0.27,-0.61,1.46,2.10,67.95,10.35,31.19,9.945,
02/07/2025,12:26:58.57,-185.06,953.61,-92.29,1.07,1.07,-2.45,2.85,69.0,11.85,31.24,9.945,
02/07/2025,12:26:58.67,-180.66,942.38,-91.80,1.45,-2.04,1.82,1.80,69.45,10.80,31.14,9.945,
02/07/2025,12:26:58.77,-173.83,940.92,-92.77,2.58,-1.60,-0.60,2.85,67.50,11.55,31.34,9.944,
02/07/2025,12:26:58.87,-189.94,951.66,-100.10,1.33,1.37,-0.25,1.05,69.0,10.05,31.00,9.944,
02/07/2025,12:26:58.97,-183.11,967.77,-105.96,1.82,2.0,0.66,2.70,68.40,9.45,31.05,9.944,
02/07/2025,12:26:59.07,-184.08,952.15,-96.68,0.84,2.53,-0.40,1.05,67.95,10.80,31.14,9.944,
02/07/2025,12:26:59.18,-187.50,941.89,-88.87,1.63,0.02,-1.95,1.20,68.40,11.25,31.24,9.944,
02/07/2025,12:26:59.28,-185.06,956.54,-97.17,1.22,1.15,0.89,2.85,67.95,10.80,31.24,9.944,
02/07/2025,12:26:59.38,-184.57,959.47,-94.73,2.87,-2.38,-0.38,1.80,68.70,11.10,31.19,9.944,
02/07/2025,12:26:59.48,-164.06,948.24,-117.19,0.49,5.69,-1.35,2.25,68.40,10.95,31.19,9.944,
02/07/2025,12:26:59.58,-212.89,946.29,-85.94,1.02,-2.82,-3.51,0.60,69.75,10.80,31.05,9.944,
02/07/2025,12:26:59.68,-154.79,949.22,-105.47,1.79,0.11,-0.06,2.10,67.50,11.10,31.34,9.944,
02/07/2025,12:26:59.78,-217.77,952.15,-100.10,2.12,1.95,0.43,2.10,67.50,11.85,31.24,9.944,
02/07/2025,12:26:59.88,-187.99,951.66,-99.61,0.56,-2.80,-0.38,2.25,68.40,11.25,31.24,9.944,
02/07/2025,12:26:59.98,-167.97,947.75,-102.54,0.50,0.43,1.40,1.20,68.85,11.25,31.24,9.945,
02/07/2025,12:27:00.08,-175.29,942.87,-88.38,-1.19,2.27,0.95,2.70,69.15,9.90,31.38,9.945,
02/07/2025,12:27:00.18,-204.10,946.29,-104.49,0.05,-1.79,-2.01,1.20,68.85,10.50,31.14,9.945,
02/07/2025,12:27:00.28,-136.23,961.91,-93.26,-0.54,4.54,1.92,1.65,68.40,11.25,31.19,9.943,
02/07/2025,12:27:00.38,-208.01,959.96,-92.29,-0.70,0.49,-1.11,1.95,68.40,11.70,31.05,9.943,
02/07/2025,12:27:00.48,-174.32,971.19,-93.26,-0.74,-1.81,0.34,1.35,67.95,11.55,31.19,9.944,
02/07/2025,12:27:00.59,-194.82,938.48,-64.94,-7.14,-1.37,0.07,1.20,68.85,11.70,31.24,9.944,
02/07/2025,12:27:00.69,-180.66,922.36,-43.46,3.78,-2.46,-0.40,1.05,68.25,11.10,31.24,9.944,
02/07/2025,12:27:00.79,-192.87,974.12,-107.91,5.80,-4.42,1.41,1.65,68.40,11.70,31.34,9.944,
02/07/2025,12:27:00.89,-159.18,976.07,-88.38,-3.52,-2.30,-0.36,0.60,67.95,12.15,31.38,9.944,
02/07/2025,12:27:00.99,-156.74,952.15,-63.48,-4.76,3.39,1.89,1.35,69.0,12.90,31.19,9.944,
02/07/2025,12:27:01.09,-184.57,944.34,-49.80,-2.63,0.26,0.15,1.95,68.40,11.70,31.05,9.944,
02/07/2025,12:27:01.19,-163.09,953.61,-43.95,-2.42,-2.08,-0.28,1.05,70.20,13.65,31.14,9.944,
02/07/2025,12:27:01.29,-174.80,956.54,-46.39,0.95,-1.88,-0.94,1.35,69.75,12.90,31.14,9.944,
02/07/2025,12:27:01.39,-166.99,959.47,-53.22,-1.44,-1.64,-1.74,2.85,70.20,12.60,31.38,9.944,
02/07/2025,12:27:01.49,-159.67,953.13,-23.44,-4.21,1.69,0.83,1.35,68.70,13.65,31.34,9.944,
02/07/2025,12:27:01.59,-173.83,967.77,-15.63,-1.69,2.79,-0.37,1.20,70.80,14.85,31.05,9.944,
02/07/2025,12:27:01.69,-161.62,958.98,-29.79,0.24,-1.98,-2.44,1.20,69.15,13.50,31.00,9.944,
02/07/2025,12:27:01.79,-160.64,960.45,-26.86,-0.34,0.28,-2.37,0.30,69.45,13.95,31.24,9.943,
02/07/2025,12:27:01.89,-177.25,971.19,-43.46,2.0,3.86,1.11,0.60,68.25,12.90,31.24,9.943,
02/07/2025,12:27:01.99,-171.88,959.47,-37.11,2.14,0.63,-1.90,1.95,69.60,14.25,31.48,9.943,
02/07/2025,12:27:02.10,-153.32,955.08,-36.13,1.88,-0.21,-2.78,2.55,68.25,14.40,31.38,9.943,
02/07/2025,12:27:02.20,-153.81,959.47,-29.30,2.44,1.40,-1.66,1.05,69.0,14.40,31.38,9.943,
02/07/2025,12:27:02.30,-179.20,971.68,-51.27,-0.08,1.80,1.27,0.60,70.20,13.65,31.24,9.944,
02/07/2025,12:27:02.40,-187.01,962.89,-38.09,0.27,-1.84,-0.04,1.20,68.40,13.80,31.24,9.944,
02/07/2025,12:27:02.50,-192.38,973.14,-52.25,-1.12,0.40,-0.36,1.05,69.45,13.95,31.19,9.944,
02/07/2025,12:27:02.60,-178.71,958.98,-58.59,-5.04,-4.51,0.89,2.70,69.15,14.55,31.24,9.944,
02/07/2025,12:27:02.70,-175.78,968.75,-65.92,-5.86,-5.60,4.54,1.05,69.75,15.45,31.38,9.944,
02/07/2025,12:27:02.80,-173.83,973.14,-36.13,-4.17,-5.78,3.33,1.80,69.75,16.20,31.38,9.944,
02/07/2025,12:27:02.90,-176.27,967.29,-11.72,-5.32,1.89,3.59,1.95,68.85,15.30,31.24,9.944,
02/07/2025,12:27:03.00,-186.52,960.45,34.18,-12.19,4.93,6.51,1.35,69.0,17.25,31.14,9.944,
02/07/2025,12:27:03.10,-139.16,992.68,1.46,-0.94,5.45,8.24,0.30,70.50,18.75,31.05,9.944,
02/07/2025,12:27:03.20,-147.95,980.96,47.85,-6.04,1.25,3.47,-1.65,69.15,18.90,31.14,9.944,
02/07/2025,12:27:03.30,-86.43,949.71,17.09,3.87,4.45,0.14,0.45,69.60,18.15,31.24,9.943,
02/07/2025,12:27:03.40,-95.21,983.40,26.86,1.84,9.92,3.93,0.45,70.05,18.15,31.14,9.943,
02/07/2025,12:27:03.50,-117.19,948.24,64.94,1.47,10.22,3.56,0.0,70.95,19.05,31.38,9.943,
02/07/2025,12:27:03.61,-89.84,951.66,44.92,2.81,8.24,2.65,0.15,68.85,18.45,30.86,9.943,
02/07/2025,12:27:03.71,-66.89,974.12,59.08,-0.57,3.82,4.41,-1.05,70.50,17.25,31.19,9.943,
02/07/2025,12:27:03.81,-56.15,1000.0,84.47,-4.88,4.58,1.82,-1.35,70.50,18.30,31.24,9.943,
02/07/2025,12:27:03.91,-36.62,956.54,102.05,-2.18,3.43,2.77,-0.60,70.50,19.05,31.19,9.943,
02/07/2025,12:27:04.01,-45.90,969.73,106.45,0.53,2.57,1.53,-0.90,70.05,18.15,31.14,9.943,
02/07/2025,12:27:04.11,-30.27,952.64,129.39,6.98,-4.51,-3.42,-1.05,70.95,20.10,31.14,9.944,
02/07/2025,12:27:04.21,-13.67,965.82,71.29,16.37,-6.45,-6.74,-1.20,72.60,18.90,31.38,9.944,
02/07/2025,12:27:04.31,-126.46,1005.37,-4.88,10.11,0.68,-4.96,0.30,72.45,19.05,31.14,9.944,
02/07/2025,12:27:04.41,-117.68,952.15,-24.90,-2.50,1.44,2.62,0.60,70.20,17.55,31.05,9.944,
02/07/2025,12:27:04.51,-60.06,955.57,-41.99,-0.13,-1.15,-1.25,0.30,71.70,15.75,31.14,9.944,
02/07/2025,12:27:04.61,-83.50,1041.02,6.35,-4.37,1.77,-4.23,-1.20,70.05,17.10,31.14,9.944,
02/07/2025,12:27:04.71,-110.84,955.08,25.88,5.45,4.34,-3.96,-1.35,70.20,16.95,31.24,9.944,
02/07/2025,12:27:04.81,-172.85,1025.88,18.55,1.28,11.84,-5.19,0.30,69.45,15.15,31.24,9.943,
02/07/2025,12:27:04.91,-183.11,1013.18,48.34,0.15,7.51,2.22,1.05,70.50,14.70,31.48,9.943,
02/07/2025,12:27:05.01,-126.95,975.10,-24.90,1.93,-5.18,9.11,0.30,69.75,13.35,31.24,9.943,
02/07/2025,12:27:05.12,-47.85,1064.45,-17.58,4.06,-7.67,1.19,0.0,69.45,14.70,31.48,9.943,
02/07/2025,12:27:05.22,-66.41,1056.64,-130.37,25.45,-10.82,-3.94,-0.30,72.45,11.85,31.19,9.943,
02/07/2025,12:27:05.32,-90.33,1097.17,-267.58,21.48,-1.43,-6.02,-0.45,71.85,9.15,31.14,9.943,
02/07/2025,12:27:05.42,-90.82,919.92,-181.64,3.23,3.56,-0.66,1.20,71.10,9.45,31.05,9.943,
02/07/2025,12:27:05.52,-63.48,822.27,-158.69,-16.06,4.86,-0.99,0.45,74.10,9.15,31.24,9.943,
02/07/2025,12:27:05.62,-90.82,814.45,-2.93,-19.26,-3.05,-0.74,0.15,73.80,11.25,31.14,9.943,
02/07/2025,12:27:05.72,-106.93,910.16,13.18,-4.17,1.40,-3.92,0.30,75.45,12.90,31.19,9.943,
02/07/2025,12:27:05.82,-125.0,930.66,9.77,0.27,5.24,-2.64,-0.90,72.60,13.50,30.95,9.944,
02/07/2025,12:27:05.92,-65.92,916.02,31.74,-4.27,-3.38,4.22,1.65,72.60,12.45,30.86,9.944,
02/07/2025,12:27:06.02,-51.27,925.78,30.76,-5.87,-0.08,-5.87,0.90,73.35,13.50,30.95,9.944,
02/07/2025,12:27:06.12,-90.82,1045.41,-56.64,2.70,2.14,-2.32,0.45,73.05,12.45,31.19,9.944,
02/07/2025,12:27:06.22,-101.56,1108.40,-131.35,-7.15,-5.76,2.17,1.05,73.20,12.15,31.19,9.943,
02/07/2025,12:27:06.32,-84.47,1114.75,-87.40,-14.07,-4.97,6.63,1.35,73.95,12.60,31.14,9.943,
02/07/2025,12:27:06.42,-59.08,1088.38,-84.96,-5.09,-7.65,0.53,-0.30,72.0,13.95,31.38,9.943,
02/07/2025,12:27:06.53,-95.21,932.13,28.32,-6.29,-3.82,2.84,-0.45,72.30,16.35,31.19,9.943,
02/07/2025,12:27:06.63,-93.75,885.74,34.18,11.86,3.89,0.01,-0.15,72.60,16.35,31.38,9.943,
02/07/2025,12:27:06.73,-53.71,877.44,45.41,16.19,7.24,3.42,-0.60,73.65,16.50,31.24,9.943,
02/07/2025,12:27:06.83,5.37,966.31,-29.79,23.02,11.37,5.80,-1.05,73.20,15.15,31.14,9.943,
02/07/2025,12:27:06.93,-47.85,927.25,22.95,-3.66,16.25,-6.34,-0.15,73.35,14.25,31.05,9.943,
02/07/2025,12:27:07.03,-115.72,977.54,-32.23,7.0,12.97,-1.33,-1.05,72.0,14.70,31.05,9.943,
02/07/2025,12:27:07.13,-56.64,985.35,-29.30,0.79,7.05,-0.50,-0.60,73.20,13.65,31.05,9.943,
02/07/2025,12:27:07.23,-37.60,994.14,-27.83,-0.05,7.71,-1.63,0.0,73.95,14.70,31.14,9.943,
02/07/2025,12:27:07.33,-34.18,923.34,13.67,1.90,13.13,-7.57,0.90,73.05,14.25,31.14,9.943,
02/07/2025,12:27:07.43,-86.43,978.52,-12.70,2.80,13.63,-6.89,1.65,73.35,14.55,31.19,9.943,
02/07/2025,12:27:07.53,-70.80,1002.44,-55.18,9.27,3.15,2.47,2.25,73.80,14.55,31.14,9.943,
02/07/2025,12:27:07.63,-21.97,1000.98,-68.85,10.37,-5.64,-0.05,1.65,73.35,13.05,31.24,9.944,
02/07/2025,12:27:07.73,-41.02,912.11,-95.21,1.49,-3.90,2.61,0.45,71.10,12.0,31.05,9.942,
02/07/2025,12:27:07.83,-50.78,955.57,-94.24,2.02,-8.82,6.50,0.0,73.65,11.85,31.14,9.942,
02/07/2025,12:27:07.93,-12.21,1018.07,-75.20,1.40,-17.76,9.24,1.20,73.80,13.80,31.05,9.942,
02/07/2025,12:27:08.04,-6.84,972.66,-79.59,-1.15,-16.79,4.36,-1.35,72.90,13.35,31.05,9.943,
02/07/2025,12:27:08.14,-61.04,965.82,-69.82,3.68,-9.52,-4.95,-1.20,72.60,13.05,31.24,9.943,
02/07/2025,12:27:08.24,-65.92,982.42,-53.71,-3.92,-4.71,0.76,-1.20,73.05,14.25,31.14,9.943,
02/07/2025,12:27:08.34,-58.11,990.72,-53.71,-3.97,-3.95,0.23,-1.05,74.70,13.65,31.38,9.943,
02/07/2025,12:27:08.44,-65.43,968.26,-74.22,-2.05,-10.89,-4.76,-1.95,74.10,14.55,31.14,9.943,
02/07/2025,12:27:08.54,-42.48,954.10,-42.97,-2.74,-10.91,-3.98,-1.35,72.45,13.95,30.95,9.943,
02/07/2025,12:27:08.64,-51.27,970.70,-45.90,2.32,-6.67,-4.15,-1.35,73.95,13.95,30.86,9.943,
02/07/2025,12:27:08.74,-70.80,985.84,-35.16,-2.31,-2.72,-1.53,-2.70,73.05,15.30,30.81,9.943,
02/07/2025,12:27:08.84,-60.55,964.36,-12.70,-1.33,0.76,-2.37,-2.55,73.65,15.15,31.14,9.943,
02/07/2025,12:27:08.94,-46.88,968.75,-22.95,-1.34,10.99,-4.56,-2.10,73.20,15.45,31.19,9.943,
02/07/2025,12:27:09.04,-143.07,969.73,-34.18,2.24,9.57,-1.95,-0.45,72.30,14.25,31.14,9.943,
02/07/2025,12:27:09.14,-89.84,984.38,-44.92,0.34,0.58,0.69,-0.30,72.0,15.45,31.24,9.942,
02/07/2025,12:27:09.24,-48.34,973.14,-23.93,-3.83,1.96,1.53,-1.20,73.05,15.60,31.24,9.942,
02/07/2025,12:27:09.34,-62.99,979.49,-28.32,-2.21,-3.91,2.76,-0.45,72.60,14.85,31.05,9.942,
02/07/2025,12:27:09.44,-54.20,973.14,-10.74,0.38,0.29,2.37,-0.45,72.60,15.30,31.14,9.942,
02/07/2025,12:27:09.55,-53.71,958.98,-10.74,2.37,1.62,0.04,-1.20,72.60,15.60,31.05,9.942,
02/07/2025,12:27:09.65,-51.27,952.15,-18.55,1.63,0.66,-0.45,-1.35,73.95,14.70,31.05,9.942,
02/07/2025,12:27:09.75,-66.41,980.47,-47.36,3.34,-0.08,-1.24,-1.35,73.95,15.45,31.00,9.943,
02/07/2025,12:27:09.85,-56.64,961.91,-31.25,0.31,0.48,-3.45,-2.85,72.90,14.70,31.24,9.943,
02/07/2025,12:27:09.95,-70.80,973.63,-30.76,-0.74,-0.60,2.10,-1.80,71.70,15.45,31.00,9.943,
02/07/2025,12:27:10.05,-60.55,982.91,-17.09,1.98,-0.35,2.52,-1.35,72.0,15.45,31.00,9.943,
02/07/2025,12:27:10.15,-47.36,975.59,-19.53,-0.69,0.72,-1.63,-0.90,73.35,15.30,30.95,9.943,
02/07/2025,12:27:10.25,-48.34,981.93,-27.34,-1.95,2.22,-1.62,-1.80,73.20,15.75,31.14,9.943,
02/07/2025,12:27:10.35,-58.11,975.59,-14.65,-0.57,-0.87,-1.17,-0.90,73.05,15.60,31.00,9.943,
02/07/2025,12:27:10.45,-51.76,960.45,-5.86,-2.50,1.19,-1.20,-2.70,71.55,15.60,31.19,9.943,
02/07/2025,12:27:10.55,-72.75,973.14,-6.35,1.02,3.64,-1.93,-0.90,71.55,15.30,31.14,9.943,
02/07/2025,12:27:10.65,-67.87,977.54,-7.32,0.94,3.15,0.0,-1.05,72.90,16.20,31.19,9.943,
02/07/2025,12:27:10.75,-56.64,960.45,-25.39,3.31,2.68,-0.90,-0.45,73.80,17.10,31.05,9.942,
02/07/2025,12:27:10.85,-79.10,978.52,-25.88,1.0,0.75,-1.66,-1.80,73.65,15.75,31.14,9.942,
02/07/2025,12:27:10.95,-66.41,971.68,-19.53,0.29,2.05,-1.40,-1.65,72.60,15.60,31.14,9.942,
02/07/2025,12:27:11.06,-54.69,969.73,-7.32,1.88,2.40,-1.11,-2.10,72.90,16.95,31.19,9.942,
02/07/2025,12:27:11.16,-56.64,980.96,-15.63,0.55,1.14,-1.86,-1.35,72.45,15.75,31.19,9.942,
02/07/2025,12:27:11.26,-66.89,964.84,-6.84,-0.04,-0.02,0.54,-1.20,73.35,15.60,31.00,9.942,
02/07/2025,12:27:11.36,-59.08,983.89,-22.95,-1.53,-0.15,2.0,-1.05,72.0,15.75,30.86,9.942,
02/07/2025,12:27:11.46,-50.78,965.82,-19.53,-1.50,-0.12,0.19,-0.60,73.20,16.20,31.14,9.943,
02/07/2025,12:27:11.56,-39.55,973.63,-7.81,0.95,-0.66,1.99,-1.80,72.90,16.20,31.05,9.943,
02/07/2025,12:27:11.66,-44.43,977.54,-2.44,-1.09,-0.64,-1.15,-0.60,71.70,15.75,31.24,9.943,
02/07/2025,12:27:11.76,-67.87,965.33,1.46,1.96,2.07,-1.76,-1.20,72.30,16.05,31.14,9.943,
02/07/2025,12:27:11.86,-42.97,973.14,-1.95,1.43,-0.92,1.24,-1.20,71.85,16.35,31.14,9.943,
02/07/2025,12:27:11.96,-78.13,977.54,0.49,1.44,0.57,-2.82,-2.25,73.80,16.05,31.14,9.943,
02/07/2025,12:27:12.06,-78.61,980.96,2.44,3.16,0.14,0.40,-1.35,72.90,15.45,31.24,9.943,
02/07/2025,12:27:12.16,-67.38,988.77,-7.32,3.40,-1.67,0.42,-1.65,73.35,16.05,31.14,9.942,
02/07/2025,12:27:12.26,-59.08,976.56,-13.18,-1.02,1.04,0.91,-2.25,71.55,16.65,31.14,9.942,
02/07/2025,12:27:12.36,-68.36,976.07,-21.97,1.81,1.64,-0.44,-1.05,73.20,15.75,31.14,9.942,
02/07/2025,12:27:12.46,-67.38,980.47,-27.34,0.67,1.30,-3.73,-0.45,71.85,15.30,31.19,9.942,
02/07/2025,12:27:12.57,-69.34,972.66,-7.32,2.09,1.02,-0.81,-2.25,72.60,16.05,31.24,9.942,
02/07/2025,12:27:12.67,-77.15,987.79,-25.39,1.88,1.50,-2.36,0.15,73.05,15.30,31.19,9.942,
02/07/2025,12:27:12.77,-61.04,976.56,-21.97,-2.11,-1.89,-0.29,-2.25,73.05,14.85,31.05,9.942,
02/07/2025,12:27:12.87,-54.20,968.26,-14.16,1.37,-1.73,1.18,-1.05,72.45,15.15,31.05,9.942,
02/07/2025,12:27:12.97,-59.08,980.47,1.46,0.63,0.11,0.28,-2.25,73.80,17.40,30.95,9.942,
02/07/2025,12:27:13.07,-48.83,984.38,0.0,3.64,2.13,-0.49,-2.85,72.45,16.95,30.81,9.942,
02/07/2025,12:27:13.17,-60.06,951.17,-13.18,1.65,-0.21,-0.40,-0.90,73.05,16.35,30.86,9.943,
02/07/2025,12:27:13.27,-53.22,977.54,-21.00,1.09,-0.37,0.23,-1.95,72.30,16.35,31.14,9.943,
02/07/2025,12:27:13.37,-61.04,984.86,-8.30,2.34,2.47,-2.0,-1.65,71.55,15.60,31.14,9.943,
02/07/2025,12:27:13.47,-55.18,959.96,-4.88,-0.42,0.54,0.35,-1.35,72.90,16.95,31.34,9.943,
02/07/2025,12:27:13.57,-58.59,973.14,-27.83,0.75,-1.26,-0.10,-1.35,73.20,16.50,31.24,9.943,
02/07/2025,12:27:13.67,-49.32,979.00,-9.77,0.45,1.90,0.15,-0.15,72.30,16.05,31.24,9.942,
02/07/2025,12:27:13.77,-53.71,975.59,-9.28,1.82,1.95,0.16,-0.90,73.35,17.40,31.05,9.942,
02/07/2025,12:27:13.87,-62.50,967.77,-3.42,-0.96,-0.50,0.65,-1.05,72.90,16.20,31.38,9.942,
02/07/2025,12:27:13.98,-55.18,966.80,-7.81,0.74,0.37,2.41,-2.70,72.60,17.40,31.14,9.942,
02/07/2025,12:27:14.08,-46.88,967.77,-6.35,-0.27,-0.26,-1.57,-1.35,71.25,15.75,30.81,9.942,
02/07/2025,12:27:14.18,-59.57,976.07,-12.21,-0.19,-1.86,0.25,-2.70,72.30,15.60,31.24,9.942,
02/07/2025,12:27:14.28,-59.08,971.68,4.39,0.38,1.15,-0.63,-2.55,72.90,16.20,31.19,9.942,
02/07/2025,12:27:14.38,-41.02,985.84,-6.35,-0.96,-3.05,0.19,-2.85,72.0,15.45,31.19,9.942,
02/07/2025,12:27:14.48,-52.73,968.26,-16.11,2.14,0.17,1.81,-3.0,72.60,16.65,31.05,9.942,
02/07/2025,12:27:14.58,-64.94,978.03,-20.51,0.47,1.40,-0.79,-1.95,72.60,17.85,30.86,9.942,
02/07/2025,12:27:14.68,-50.78,986.33,-5.37,-1.84,-0.87,0.49,-2.25,73.80,16.35,30.86,9.942,
02/07/2025,12:27:14.78,-44.43,983.40,-16.11,-0.05,3.68,-1.08,-2.10,73.20,16.20,31.14,9.942,
02/07/2025,12:27:14.88,-53.71,964.36,2.44,1.18,0.61,-1.63,-1.95,72.60,16.65,31.05,9.942,
02/07/2025,12:27:14.98,-65.92,966.80,0.49,0.35,3.45,-1.31,-1.65,71.55,17.40,30.95,9.943,
02/07/2025,12:27:15.08,-53.71,982.42,-4.88,1.02,-2.01,-0.19,-2.25,72.30,17.10,31.19,9.943,
02/07/2025,12:27:15.18,-58.59,969.73,0.98,-0.89,-1.39,-0.79,-2.85,73.20,16.50,31.14,9.942,
02/07/2025,12:27:15.28,-45.41,968.75,7.32,1.13,1.84,-2.66,-0.45,72.60,18.45,31.14,9.942,
02/07/2025,12:27:15.38,-61.52,958.01,11.72,1.43,-0.86,-1.19,-3.45,71.85,17.85,31.05,9.942,
02/07/2025,12:27:15.48,-61.52,972.66,-14.16,3.98,2.17,-1.09,-2.10,72.45,16.20,31.05,9.942,
02/07/2025,12:27:15.59,-66.41,964.84,8.30,2.17,1.26,-1.45,-0.15,71.55,17.10,31.00,9.942,
02/07/2025,12:27:15.69,-52.25,968.75,-6.35,0.21,-0.35,-1.0,-0.60,71.70,16.20,31.19,9.942,
02/07/2025,12:27:15.79,-78.61,980.47,15.14,1.82,-1.53,-2.08,-1.80,71.70,16.50,31.05,9.942,
02/07/2025,12:27:15.89,-65.43,980.96,-9.77,1.96,0.64,-0.04,-2.55,72.90,16.95,31.14,9.942,
02/07/2025,12:27:15.99,-63.48,967.29,-8.79,-0.67,-1.44,-0.56,-1.80,72.0,16.95,31.05,9.942,
02/07/2025,12:27:16.09,-53.22,980.96,-7.32,0.33,-0.16,0.18,-1.05,72.90,16.95,31.05,9.942,
02/07/2025,12:27:16.19,-49.80,966.31,-2.44,-2.66,-2.23,2.31,-1.80,72.0,17.25,30.95,9.942,
02/07/2025,12:27:16.29,-48.34,985.35,1.95,0.98,-1.95,0.76,-1.80,72.0,17.25,31.05,9.942,
02/07/2025,12:27:16.39,-35.64,977.05,-6.84,0.28,-0.75,-0.68,-1.65,72.30,15.60,31.00,9.942,
02/07/2025,12:27:16.49,-60.06,978.03,2.93,-0.08,1.61,-0.42,-2.70,72.60,19.20,31.14,9.942,
02/07/2025,12:27:16.59,-55.66,968.75,8.30,-0.95,-2.13,1.22,-1.80,72.0,16.50,30.86,9.942,
02/07/2025,12:27:16.69,-53.22,977.54,2.93,0.93,-0.50,0.56,-3.45,73.35,17.10,31.05,9.941,
02/07/2025,12:27:16.79,-31.25,974.61,16.11,0.28,3.53,-0.02,-1.95,72.30,16.65,31.14,9.941,
02/07/2025,12:27:16.89,-57.13,977.54,15.63,0.33,1.52,-2.11,-2.70,74.55,17.10,31.19,9.942,
02/07/2025,12:27:17.00,-49.80,962.89,12.21,2.31,0.21,-1.0,-2.55,71.70,16.20,31.14,9.942,
02/07/2025,12:27:17.10,-53.71,972.17,8.30,1.38,1.40,-0.79,-1.65,71.85,17.40,31.24,9.942,
02/07/2025,12:27:17.20,-51.76,978.03,21.00,-0.18,5.89,3.49,-1.35,70.95,16.95,31.14,9.942,
02/07/2025,12:27:17.30,-66.89,981.45,10.74,-0.04,1.22,-0.91,-2.85,72.0,15.75,31.14,9.942,
02/07/2025,12:27:17.40,-49.80,975.59,5.37,1.33,1.01,0.91,-2.55,73.20,16.95,31.24,9.942,
02/07/2025,12:27:17.50,-54.69,971.68,11.23,1.66,1.19,-1.18,-0.90,72.60,17.85,31.14,9.942,
02/07/2025,12:27:17.60,-41.50,974.12,7.81,0.60,0.53,0.17,-1.20,73.05,16.35,30.81,9.942,
02/07/2025,12:27:17.70,-62.99,974.61,2.44,0.32,-0.40,-0.79,-1.80,72.90,16.50,30.95,9.942,
02/07/2025,12:27:17.80,-42.97,966.31,1.46,1.32,-2.83,0.04,-1.35,72.90,17.55,30.67,9.942,
02/07/2025,12:27:17.90,-62.01,975.10,-3.91,-0.60,2.87,-0.98,-1.65,73.35,16.05,30.86,9.942,
02/07/2025,12:27:18.00,-60.55,981.93,-1.46,-0.56,0.27,0.06,-0.60,74.70,17.25,31.14,9.942,
02/07/2025,12:27:18.10,-35.64,973.63,9.28,1.64,2.06,-2.56,-0.45,73.80,16.35,31.05,9.941,
02/07/2025,12:27:18.20,-44.92,967.29,-1.95,2.62,2.60,-1.78,-1.80,73.20,16.20,31.14,9.941,
02/07/2025,12:27:18.30,-68.85,986.33,-2.44,0.62,2.73,-0.79,-1.35,72.90,16.95,31.14,9.941,
02/07/2025,12:27:18.40,-65.43,971.19,6.84,1.44,-1.70,-0.01,-1.65,71.55,17.40,31.05,9.941,
02/07/2025,12:27:18.51,-55.18,980.47,9.77,0.44,0.38,-0.17,-1.05,72.90,17.25,31.05,9.941,
02/07/2025,12:27:18.61,-44.92,968.75,6.35,1.59,2.65,-1.35,-0.45,73.80,16.35,31.14,9.942,
02/07/2025,12:27:18.71,-50.78,966.80,-1.95,1.05,0.14,1.0,0.0,73.20,15.75,30.95,9.942,
02/07/2025,12:27:18.81,-70.31,981.45,-14.16,3.18,-0.93,-0.79,-0.15,73.80,16.65,31.05,9.942,
02/07/2025,12:27:18.91,-59.57,979.49,-10.25,0.69,0.18,0.23,-0.15,72.60,17.10,31.05,9.942,
02/07/2025,12:27:19.01,-61.52,976.56,-2.44,-1.20,-0.41,1.97,-1.65,73.05,17.10,31.05,9.942,
02/07/2025,12:27:19.11,-49.80,968.75,-5.37,0.23,1.24,0.53,-1.95,73.05,17.40,31.24,9.942,
02/07/2025,12:27:19.21,-52.25,974.12,-12.21,1.87,4.60,0.66,-0.90,74.55,15.60,31.05,9.942,
02/07/2025,12:27:19.31,-41.99,990.23,0.0,1.10,-1.77,-1.38,-0.15,72.60,16.35,30.81,9.942,
02/07/2025,12:27:19.41,-61.52,969.24,-12.70,0.56,-0.78,-1.47,-0.30,72.90,16.50,30.81,9.942,
02/07/2025,12:27:19.51,-34.18,977.05,-4.88,-0.89,4.37,-3.08,-1.05,73.20,15.75,30.86,9.942,
02/07/2025,12:27:19.61,-54.20,971.19,-7.32,4.17,1.41,-1.55,-0.30,72.90,16.50,31.00,9.942,
02/07/2025,12:27:19.71,-56.64,979.98,-8.79,-2.15,3.37,4.26,-2.10,72.90,15.75,31.14,9.941,
02/07/2025,12:27:19.81,-62.99,969.24,16.60,-1.56,-0.97,1.80,-0.60,72.90,16.95,31.14,9.941,
02/07/2025,12:27:19.91,-40.53,966.80,-6.35,1.64,0.25,-0.04,-1.35,72.0,16.50,31.14,9.941,
02/07/2025,12:27:20.02,-51.76,966.80,8.30,1.27,3.08,-0.66,-1.05,73.65,18.0,30.86,9.941,
02/07/2025,12:27:20.12,-57.62,970.70,-2.44,0.73,1.86,0.53,-1.20,71.85,16.35,31.14,9.941,
02/07/2025,12:27:20.22,-36.62,969.73,-4.88,0.21,-1.82,-1.22,-1.95,71.55,16.65,31.24,9.941,
02/07/2025,12:27:20.32,-52.25,981.45,0.98,-0.78,2.14,0.94,-1.05,72.90,16.50,30.95,9.942,
02/07/2025,12:27:20.42,-62.50,958.50,7.32,-0.50,-0.31,-2.62,-1.80,72.45,16.50,31.05,9.942,
02/07/2025,12:27:20.52,-62.99,973.63,25.88,0.89,-1.76,-0.89,-0.90,72.30,17.10,31.14,9.942,
02/07/2025,12:27:20.62,-50.29,981.45,-3.42,0.21,-0.48,0.84,-1.35,72.90,18.0,30.86,9.942,
02/07/2025,12:27:20.72,-42.48,983.40,-10.25,-0.08,0.81,-3.61,-1.20,71.85,14.55,31.05,9.942,
02/07/2025,12:27:20.82,-53.22,974.12,21.00,0.35,0.45,-1.29,-0.45,72.30,16.05,30.86,9.942,
02/07/2025,12:27:20.92,-41.02,977.54,-4.39,1.13,2.61,-1.23,-0.30,72.0,16.95,31.14,9.942,
02/07/2025,12:27:21.02,-49.32,980.96,3.42,0.41,-0.73,0.81,-0.90,73.35,16.05,30.95,9.942,
02/07/2025,12:27:21.12,-45.41,966.80,12.21,2.18,-0.50,-0.66,-0.45,72.60,17.85,30.86,9.941,
02/07/2025,12:27:21.22,-61.04,972.66,3.42,2.38,1.76,1.06,-1.65,73.35,17.40,30.86,9.941,
02/07/2025,12:27:21.32,-35.64,968.75,-1.95,2.07,-0.33,0.24,-1.05,72.45,16.50,31.05,9.941,
02/07/2025,12:27:21.42,-56.15,975.59,1.95,2.06,1.37,-0.64,-1.65,73.80,17.10,31.19,9.941,
02/07/2025,12:27:21.53,-80.57,961.43,5.37,4.22,0.78,-1.80,-0.90,72.60,17.10,31.05,9.941,
02/07/2025,12:27:21.63,-62.01,975.10,-21.00,2.36,-0.76,-1.59,-1.20,73.05,15.60,31.14,9.941,
02/07/2025,12:27:21.73,-40.53,963.38,-23.93,-1.36,-0.98,-0.50,-1.35,72.45,15.75,31.05,9.941,
02/07/2025,12:27:21.83,-56.64,964.36,-8.79,0.82,-0.49,1.57,-1.95,72.30,16.65,31.14,9.941,
02/07/2025,12:27:21.93,-39.06,978.52,-9.28,0.68,-0.87,-0.32,-0.60,72.90,15.75,31.05,9.941,
02/07/2025,12:27:22.03,-45.41,988.77,-15.63,1.32,0.22,1.73,-0.45,71.85,16.65,31.14,9.942,
02/07/2025,12:27:22.13,-50.78,963.87,2.44,0.56,0.92,1.13,-1.35,72.45,18.0,30.95,9.942,
02/07/2025,12:27:22.23,-57.13,990.23,-8.30,0.02,0.23,-0.62,-0.15,73.05,16.65,31.14,9.942,
02/07/2025,12:27:22.33,-62.99,980.96,5.86,-1.12,-0.27,-0.53,-1.65,73.05,15.60,31.05,9.942,
02/07/2025,12:27:22.43,-56.15,968.26,3.91,0.34,0.28,0.98,-1.35,72.0,15.75,31.19,9.942,
02/07/2025,12:27:22.53,-50.78,982.42,-5.86,-0.74,-2.34,-3.32,-1.95,73.80,17.10,31.05,9.942,
02/07/2025,12:27:22.63,-49.32,969.73,1.46,0.32,-1.59,-0.42,-1.05,73.65,16.20,31.00,9.942,
02/07/2025,12:27:22.73,-49.80,966.80,3.91,1.04,0.21,0.67,-2.85,73.20,17.55,30.81,9.941,
02/07/2025,12:27:22.83,-44.43,967.29,4.39,2.72,0.72,0.34,-0.45,72.60,16.05,30.81,9.941,
02/07/2025,12:27:22.93,-58.59,958.50,-9.77,0.44,-0.69,1.95,-1.65,72.60,17.40,31.05,9.941,
02/07/2025,12:27:23.04,-50.78,969.73,3.91,-0.63,1.44,-0.02,-1.05,73.95,16.50,31.00,9.941,
02/07/2025,12:27:23.14,-44.43,959.47,-1.46,-1.52,2.71,0.11,0.0,71.25,16.95,31.00,9.941,
02/07/2025,12:27:23.24,-36.62,971.19,5.37,0.58,-0.11,2.57,-1.95,73.35,16.65,31.14,9.941,
02/07/2025,12:27:23.34,-49.32,971.68,-6.35,2.44,1.56,-1.74,-1.35,72.90,16.95,31.00,9.941,
02/07/2025,12:27:23.44,-50.78,976.07,7.32,0.74,0.29,-0.35,-0.60,73.65,15.75,31.19,9.941,
02/07/2025,12:27:23.54,-49.80,973.63,-1.46,2.14,0.30,-1.34,-1.65,72.60,17.40,31.05,9.941,
02/07/2025,12:27:23.64,-50.78,963.87,-2.93,0.97,1.31,0.73,-1.05,72.90,15.15,31.14,9.941,
02/07/2025,12:27:23.74,-60.06,966.80,0.0,2.20,1.29,0.05,-1.05,72.90,16.95,30.86,9.942,
02/07/2025,12:27:23.84,-46.88,988.28,-17.09,0.01,0.08,1.49,-1.80,72.90,16.50,30.95,9.942,
02/07/2025,12:27:23.94,-44.43,974.12,-14.16,-0.66,0.39,-1.68,-1.95,73.35,15.30,31.05,9.942,
02/07/2025,12:27:24.04,-48.34,968.26,-2.44,-0.05,-1.24,-1.44,-1.95,72.30,16.05,31.14,9.942,
02/07/2025,12:27:24.14,-53.71,969.24,1.95,-0.69,-0.07,1.02,-2.25,73.35,16.35,31.19,9.941,
02/07/2025,12:27:24.24,-49.32,976.07,-15.14,3.50,0.67,-1.01,-1.80,72.90,16.95,31.14,9.941,
02/07/2025,12:27:24.34,-37.60,976.07,-3.91,-0.91,1.34,0.66,-2.55,71.25,15.75,30.81,9.941,
02/07/2025,12:27:24.44,-34.67,967.77,9.28,0.88,0.27,-0.73,-1.05,72.45,16.50,31.05,9.941,
02/07/2025,12:27:24.55,-38.57,973.63,-0.49,0.86,0.31,-0.60,-1.95,73.80,16.05,30.71,9.941,
02/07/2025,12:27:24.65,-39.06,979.00,-15.63,-0.64,1.77,-0.87,-1.80,72.0,16.95,31.05,9.941,
02/07/2025,12:27:24.75,-44.43,980.96,0.49,0.91,-0.31,-2.29,-1.20,73.80,16.05,30.86,9.941,
02/07/2025,12:27:24.85,-62.50,977.54,-2.93,0.22,1.40,0.83,-0.30,71.25,17.55,31.00,9.941,
02/07/2025,12:27:24.95,-57.62,977.05,2.44,0.09,2.47,-1.36,-1.80,72.0,17.55,31.00,9.941,
02/07/2025,12:27:25.05,-55.66,977.05,-0.49,-0.46,2.16,-0.88,-1.05,73.20,16.20,31.05,9.941,
02/07/2025,12:27:25.15,-40.04,975.10,2.93,1.94,0.69,-0.24,-1.20,71.85,15.60,31.14,9.941,
02/07/2025,12:27:25.25,-38.09,974.12,1.95,3.40,1.46,-1.98,-2.10,72.0,13.95,31.05,9.941,
02/07/2025,12:27:25.35,-32.23,971.19,-4.88,2.06,-1.72,0.80,-2.10,72.45,16.95,31.05,9.941,
02/07/2025,12:27:25.45,-44.92,961.91,3.42,0.0,0.68,0.79,-2.55,72.0,16.95,31.05,9.942,
02/07/2025,12:27:25.55,-47.85,974.61,2.44,2.79,-0.81,-0.49,-1.80,73.65,16.50,31.14,9.942,
02/07/2025,12:27:25.65,-30.27,974.12,0.0,1.68,2.08,-1.01,-1.20,73.35,16.05,31.24,9.942,
02/07/2025,12:27:25.75,-39.06,973.14,2.93,0.61,0.44,0.10,-2.55,72.90,16.20,30.86,9.941,
02/07/2025,12:27:25.85,-33.20,983.40,-2.93,0.76,0.53,-0.23,-0.15,71.10,17.10,31.14,9.941,
02/07/2025,12:27:25.95,-40.53,992.19,8.30,-0.73,-1.17,-2.87,-2.25,71.85,17.85,31.05,9.941,
02/07/2025,12:27:26.06,-55.66,971.19,13.67,-0.03,-0.91,1.33,-1.05,71.70,17.25,31.00,9.941,
02/07/2025,12:27:26.16,-40.04,980.96,22.46,-0.91,0.45,0.83,-2.85,73.20,15.75,30.95,9.941,
02/07/2025,12:27:26.26,-28.32,964.36,-0.98,0.30,-1.24,-1.18,-1.35,73.65,17.55,31.05,9.941,
02/07/2025,12:27:26.36,-34.67,971.19,-9.77,2.06,0.31,-0.79,-0.60,71.70,16.20,30.81,9.941,
02/07/2025,12:27:26.46,-41.02,977.54,9.28,3.43,1.64,-1.08,-1.35,72.0,16.95,31.00,9.941,
02/07/2025,12:27:26.56,-34.67,972.17,-6.84,0.64,1.32,-2.79,-1.65,73.35,17.40,30.86,9.941,
02/07/2025,12:27:26.66,-70.31,955.57,-6.84,-2.10,3.37,-2.58,-1.65,73.05,16.65,31.00,9.941,
02/07/2025,12:27:26.76,-51.76,972.17,-3.91,0.88,2.64,-2.79,-1.05,73.95,15.75,31.05,9.941,
02/07/2025,12:27:26.86,-50.29,983.89,-12.21,-1.99,1.30,-1.79,-0.60,72.0,15.15,30.95,9.941,
02/07/2025,12:27:26.96,-67.38,973.14,5.37,3.64,1.95,-0.51,-0.60,72.0,16.50,31.24,9.941,
02/07/2025,12:27:27.06,-59.08,971.68,-15.14,2.92,0.33,-1.38,-0.90,73.05,16.05,31.05,9.941,
02/07/2025,12:27:27.16,-58.59,971.68,-8.30,1.98,0.66,0.86,-1.05,71.70,17.25,31.05,9.941,
02/07/2025,12:27:27.26,-58.59,976.07,-9.28,1.55,-1.05,1.17,-2.10,72.90,16.20,31.05,9.941,
02/07/2025,12:27:27.36,-41.50,971.19,0.98,0.62,0.66,0.39,-1.65,73.35,15.60,30.95,9.941,
02/07/2025,12:27:27.46,-55.66,990.72,-1.95,0.48,0.72,-1.18,-1.20,71.55,17.40,31.14,9.941,
02/07/2025,12:27:27.57,-52.25,984.38,-4.39,1.98,0.99,-0.44,-1.95,73.35,17.40,31.14,9.941,
02/07/2025,12:27:27.67,-52.25,977.05,-2.93,0.09,0.94,-1.66,-1.65,73.05,18.15,31.05,9.941,
02/07/2025,12:27:27.77,-43.46,955.08,0.49,-1.34,-0.58,0.18,-0.90,71.10,16.35,31.05,9.941,
02/07/2025,12:27:27.87,-49.32,966.80,-0.98,2.51,-0.92,1.02,-0.90,71.85,16.65,30.95,9.941,
02/07/2025,12:27:27.97,-36.62,975.59,11.23,1.15,-1.61,1.88,0.0,72.45,17.25,30.95,9.941,
02/07/2025,12:27:28.07,-54.20,989.26,-7.32,-0.72,0.92,0.89,-0.45,73.35,18.45,31.05,9.941,
02/07/2025,12:27:28.17,-56.64,988.77,9.28,-0.58,0.62,1.28,-0.60,72.90,16.50,30.86,9.941,
02/07/2025,12:27:28.27,-47.36,979.00,2.93,1.92,-0.62,-1.56,-2.25,71.10,16.05,31.05,9.941,
02/07/2025,12:27:28.37,-53.71,956.05,0.49,1.08,-0.60,0.21,-1.95,73.05,16.05,31.00,9.941,
02/07/2025,12:27:28.47,-36.13,977.05,9.77,2.67,1.24,-1.38,-1.35,72.45,15.75,30.86,9.941,
02/07/2025,12:27:28.57,-32.71,972.66,-10.74,0.10,1.57,-0.16,-1.05,72.0,16.50,30.81,9.941,
02/07/2025,12:27:28.67,-44.43,967.29,-0.49,2.57,2.32,-0.38,-2.85,73.65,15.45,30.71,9.941,
02/07/2025,12:27:28.77,-28.81,967.77,-5.86,-0.66,0.56,-0.94,-3.30,72.90,17.55,31.14,9.940,
02/07/2025,12:27:28.87,-41.02,963.38,4.39,0.85,-1.22,-1.95,-1.65,72.60,15.60,31.00,9.941,
02/07/2025,12:27:28.97,-41.02,962.89,7.81,0.89,0.57,-1.77,-1.35,74.70,16.50,31.14,9.941,
02/07/2025,12:27:29.08,-29.30,983.40,-11.72,0.18,-0.67,0.77,-0.15,70.80,16.35,31.05,9.941,
02/07/2025,12:27:29.18,-31.25,987.79,8.30,-0.15,0.23,0.10,-3.0,73.05,17.85,31.14,9.941,
02/07/2025,12:27:29.28,-34.67,975.10,9.28,0.18,0.37,1.69,-0.60,72.90,17.55,30.86,9.941,
02/07/2025,12:27:29.38,-21.00,966.31,-1.46,1.16,0.92,-2.27,-1.80,71.70,17.55,31.19,9.941,
02/07/2025,12:27:29.48,-22.95,971.19,0.98,0.10,2.24,0.73,-1.35,73.20,17.55,30.95,9.941,
02/07/2025,12:27:29.58,-51.76,988.28,-4.88,1.98,0.66,-0.88,-1.80,74.40,16.50,31.00,9.941,
02/07/2025,12:27:29.68,-41.50,976.07,-8.30,-0.35,2.02,-3.93,-2.10,72.45,16.50,30.95,9.941,
02/07/2025,12:27:29.78,-47.36,965.82,-10.25,2.22,2.04,-1.72,-0.90,72.30,15.60,31.00,9.941,
02/07/2025,12:27:29.88,-30.27,979.00,0.0,1.54,1.82,-0.98,-2.25,72.60,15.60,31.00,9.941,
02/07/2025,12:27:29.98,-21.97,958.01,8.30,0.61,2.76,-3.74,-1.20,73.05,16.35,31.00,9.941,
02/07/2025,12:27:30.08,-43.95,976.56,-5.37,2.28,3.25,-2.37,-1.05,70.50,16.50,31.00,9.941,
02/07/2025,12:27:30.18,-56.64,966.31,-10.25,0.90,7.88,0.05,-0.60,73.65,15.75,30.95,9.940,
02/07/2025,12:27:30.28,-58.11,976.56,-29.30,0.67,6.44,-1.13,-0.60,73.20,15.75,30.95,9.940,
02/07/2025,12:27:30.38,-44.92,989.26,-12.21,-1.37,6.95,0.15,0.15,71.85,14.85,31.00,9.940,
02/07/2025,12:27:30.48,-53.22,968.26,-10.25,-1.36,7.09,0.36,-0.45,74.10,16.05,30.62,9.940,
02/07/2025,12:27:30.59,-48.34,984.38,0.0,-1.11,5.19,1.24,-1.05,73.20,15.75,30.67,9.941,
02/07/2025,12:27:30.69,-31.74,996.09,1.46,-3.60,8.48,-1.47,-0.45,72.30,15.30,30.81,9.941,
02/07/2025,12:27:30.79,-34.67,983.89,17.58,-3.31,6.73,1.02,1.65,72.30,16.05,30.95,9.941,
02/07/2025,12:27:30.89,-43.95,969.24,41.02,-5.83,10.82,1.76,0.15,72.30,16.05,30.95,9.941,
02/07/2025,12:27:30.99,-50.29,969.73,40.04,-8.53,12.55,0.39,-0.45,73.05,17.10,31.05,9.941,
02/07/2025,12:27:31.09,-111.33,1019.04,-13.67,-4.68,13.25,-2.11,-0.90,71.85,16.05,31.00,9.941,
02/07/2025,12:27:31.19,-39.55,947.27,57.13,-4.66,7.81,7.58,0.0,73.20,15.45,31.05,9.941,
02/07/2025,12:27:31.29,-17.09,980.47,18.55,-0.35,11.89,5.85,1.20,71.55,16.65,31.24,9.941,
02/07/2025,12:27:31.39,-37.11,979.98,35.16,-4.14,7.18,1.05,1.20,71.85,16.35,30.95,9.941,
02/07/2025,12:27:31.49,-7.81,960.45,61.04,-4.12,5.65,2.14,0.15,71.10,16.65,31.05,9.941,
02/07/2025,12:27:31.59,15.14,957.03,62.99,-2.38,1.61,3.33,-1.05,73.20,16.95,31.05,9.941,
02/07/2025,12:27:31.69,5.37,994.63,55.66,-1.42,3.49,-2.24,0.15,72.30,18.15,30.86,9.941,
02/07/2025,12:27:31.79,-13.18,974.61,50.29,-1.40,5.27,2.56,-1.20,73.05,17.40,30.95,9.940,
02/07/2025,12:27:31.89,13.67,943.85,83.50,3.39,1.21,1.85,0.15,73.80,17.10,31.14,9.940,
02/07/2025,12:27:31.99,6.84,984.86,44.92,3.69,4.06,1.70,-1.65,71.55,16.35,31.05,9.940,
02/07/2025,12:27:32.10,-30.76,988.77,47.36,-1.31,1.76,-0.66,-0.30,73.20,16.20,30.95,9.940,
02/07/2025,12:27:32.20,17.58,973.63,71.29,1.06,0.85,4.65,0.0,73.65,16.95,30.86,9.940,
02/07/2025,12:27:32.30,14.65,974.61,64.45,0.35,-0.72,-2.34,-0.90,72.60,17.10,31.05,9.941,
02/07/2025,12:27:32.40,9.28,972.66,48.83,1.91,1.58,-1.79,-0.15,72.60,16.35,30.86,9.941,
02/07/2025,12:27:32.50,-17.09,975.10,48.83,0.18,3.02,-1.34,-0.60,72.45,16.20,30.86,9.941,
02/07/2025,12:27:32.60,-3.91,980.96,37.11,2.31,1.26,-0.95,1.20,72.30,16.05,30.81,9.941,
02/07/2025,12:27:32.70,6.84,980.96,40.04,-3.11,-0.89,-7.10,-0.15,73.35,16.05,30.81,9.941,
02/07/2025,12:27:32.80,-11.23,985.84,69.82,-0.29,2.37,-2.86,0.0,72.0,16.20,30.86,9.941,
02/07/2025,12:27:32.90,-19.53,981.45,37.60,-2.05,-5.0,-2.14,0.0,73.65,15.75,31.05,9.941,
02/07/2025,12:27:33.00,-20.02,965.33,65.43,-5.05,-5.24,-0.35,1.05,73.20,18.0,31.05,9.941,
02/07/2025,12:27:33.10,-38.57,978.52,86.43,-3.77,-4.65,-1.88,-0.15,71.10,17.85,31.14,9.941,
02/07/2025,12:27:33.20,-7.81,953.61,110.35,1.66,-4.53,-3.60,-0.30,72.0,17.55,31.14,9.940,
02/07/2025,12:27:33.30,26.37,953.13,100.59,4.74,-6.57,-7.33,0.45,72.60,19.20,30.86,9.940,
02/07/2025,12:27:33.40,-66.41,958.01,66.89,5.22,-4.38,-6.50,0.0,71.70,19.80,31.05,9.940,
02/07/2025,12:27:33.50,-87.89,972.17,83.98,-1.07,-8.82,-7.0,0.45,71.55,18.45,31.00,9.940,
02/07/2025,12:27:33.61,-42.48,990.72,90.82,-7.76,-7.0,3.0,0.0,72.45,18.75,31.00,9.940,
02/07/2025,12:27:33.71,-48.83,956.05,109.86,-8.03,-5.48,-1.54,0.45,71.55,19.65,31.00,9.940,
02/07/2025,12:27:33.81,-35.16,964.84,128.42,-11.05,-4.95,-2.11,0.30,70.50,20.85,31.14,9.940,
02/07/2025,12:27:33.91,-42.48,967.77,146.00,-12.75,0.30,-2.52,-0.15,70.05,21.0,31.05,9.941,
02/07/2025,12:27:34.01,-55.66,954.59,170.41,-13.38,-3.23,1.80,1.80,69.75,22.65,31.05,9.941,
02/07/2025,12:27:34.11,-50.78,959.96,203.61,-14.21,1.76,-1.64,0.60,69.45,24.45,30.86,9.941,
02/07/2025,12:27:34.21,-53.71,948.24,227.05,-15.61,1.83,-1.15,0.15,69.60,26.10,31.05,9.941,
02/07/2025,12:27:34.31,-60.06,927.25,267.09,-13.71,3.91,-0.67,-1.20,68.10,27.60,31.00,9.941,
02/07/2025,12:27:34.41,-43.95,925.29,291.02,-8.47,0.49,3.32,1.05,67.20,26.70,31.05,9.941,
02/07/2025,12:27:34.51,-44.43,936.04,311.52,-5.18,-2.44,1.91,-1.05,67.20,27.75,31.14,9.941,
02/07/2025,12:27:34.61,-37.60,937.99,310.55,-3.53,-4.39,-0.13,-1.20,66.15,28.95,30.81,9.941,
02/07/2025,12:27:34.71,-42.48,938.96,299.80,-7.11,-2.56,0.51,-0.30,65.55,28.80,31.00,9.941,
02/07/2025,12:27:34.81,-35.64,913.09,339.84,-4.78,-0.60,-2.54,0.45,66.15,28.95,30.81,9.940,
02/07/2025,12:27:34.91,-59.08,918.95,338.87,-0.53,0.34,-2.85,-1.20,65.40,30.0,30.67,9.940,
02/07/2025,12:27:35.01,-66.41,918.46,332.52,3.50,1.51,1.10,-0.30,63.75,28.50,31.14,9.940,
02/07/2025,12:27:35.12,-32.23,923.34,311.04,1.98,-1.04,1.16,0.60,65.55,29.55,31.05,9.940,
02/07/2025,12:27:35.22,-47.85,921.88,317.38,5.27,0.24,-1.32,-0.60,64.80,29.10,31.14,9.940,
02/07/2025,12:27:35.32,-51.27,915.53,325.20,8.28,0.50,-0.81,0.30,66.0,29.10,30.86,9.940,
02/07/2025,12:27:35.42,-37.11,930.18,271.97,8.37,0.56,-0.19,0.30,65.25,28.05,30.95,9.940,
02/07/2025,12:27:35.52,-55.18,924.80,267.09,9.43,2.64,-1.60,-0.15,66.15,28.65,31.05,9.940,
02/07/2025,12:27:35.62,-70.80,938.96,266.11,11.83,-0.05,-1.05,2.70,67.35,27.15,31.14,9.941,
02/07/2025,12:27:35.72,-64.94,917.48,269.53,13.19,-0.73,1.56,0.0,67.50,27.75,31.05,9.941,
02/07/2025,12:27:35.82,-49.80,950.68,199.71,18.30,-2.80,-2.76,0.45,69.15,25.80,31.00,9.941,
02/07/2025,12:27:35.92,-50.29,964.36,169.92,17.40,-0.59,-0.76,0.45,68.40,22.80,31.14,9.941,
02/07/2025,12:27:36.02,-65.43,958.98,150.88,11.76,1.17,-3.48,1.05,70.20,23.40,31.05,9.941,
02/07/2025,12:27:36.12,-72.27,964.84,136.23,14.21,0.01,-3.79,-0.45,69.60,21.0,31.24,9.941,
02/07/2025,12:27:36.22,-57.13,984.86,84.47,13.28,3.19,-5.82,0.15,70.35,20.70,30.95,9.941,
02/07/2025,12:27:36.32,-87.89,970.70,88.87,11.96,2.76,-4.80,0.90,70.35,19.65,30.81,9.940,
02/07/2025,12:27:36.42,-84.96,968.75,71.78,10.88,2.44,-0.38,0.60,69.75,18.30,31.05,9.940,
02/07/2025,12:27:36.52,-86.91,964.84,56.64,7.14,3.98,-4.38,1.80,70.50,18.75,30.67,9.940,
02/07/2025,12:27:36.63,-101.56,987.30,41.02,3.91,1.07,-0.44,1.05,71.25,18.0,31.00,9.940,
02/07/2025,12:27:36.73,-98.63,968.26,45.90,4.24,2.43,-0.34,0.45,73.35,17.40,31.14,9.940,
02/07/2025,12:27:36.83,-83.01,970.70,26.37,5.47,-1.80,-2.52,2.70,73.35,16.65,30.86,9.940,
02/07/2025,12:27:36.93,-102.05,966.80,37.11,2.56,1.51,-1.73,1.80,71.25,17.25,30.86,9.940,
02/07/2025,12:27:37.03,-97.66,970.21,26.37,2.31,2.15,-0.27,0.15,71.55,16.35,30.81,9.940,
02/07/2025,12:27:37.13,-107.91,964.84,14.16,1.31,-0.74,-1.14,2.10,71.25,16.95,30.86,9.940,
02/07/2025,12:27:37.23,-86.43,969.24,34.18,2.16,-1.99,-0.69,1.65,71.85,15.60,30.95,9.940,
02/07/2025,12:27:37.33,-94.73,981.93,19.53,0.0,0.57,0.76,2.25,72.30,17.40,30.71,9.941,
02/07/2025,12:27:37.43,-90.82,988.28,20.02,3.17,-0.01,0.49,2.70,71.85,16.05,31.05,9.941,
02/07/2025,12:27:37.53,-84.96,968.26,16.11,0.98,-0.44,-1.79,1.65,73.05,15.60,30.95,9.941,
02/07/2025,12:27:37.63,-97.66,968.75,14.16,1.18,-1.66,0.97,2.25,71.55,16.35,31.00,9.941,
02/07/2025,12:27:37.73,-89.36,961.91,35.16,0.43,0.25,-1.05,1.65,70.35,17.10,30.95,9.941,
02/07/2025,12:27:37.83,-90.82,978.03,23.44,-0.24,0.45,2.23,2.10,71.25,17.25,31.14,9.940,
02/07/2025,12:27:37.93,-86.91,974.12,22.95,1.73,-1.08,-2.56,2.10,72.45,15.75,31.14,9.940,
02/07/2025,12:27:38.03,-103.52,975.10,26.86,0.42,2.02,-2.71,3.0,71.85,16.05,30.95,9.940,
02/07/2025,12:27:38.14,-109.86,975.59,24.90,-2.15,-3.84,0.93,2.55,72.90,16.95,31.05,9.940,
02/07/2025,12:27:38.24,-81.54,976.56,37.60,-1.02,-6.04,-1.22,2.85,71.70,16.50,30.81,9.940,
02/07/2025,12:27:38.34,-99.12,965.82,42.48,0.97,-0.60,-2.31,2.10,73.20,17.25,30.95,9.940,
02/07/2025,12:27:38.44,-98.14,970.70,14.16,0.47,-1.56,-0.70,1.95,70.80,17.10,31.00,9.940,
02/07/2025,12:27:38.54,-99.61,983.89,35.64,0.31,-0.74,-1.77,0.60,71.70,18.75,30.71,9.940,
02/07/2025,12:27:38.64,-95.21,980.96,47.36,-2.92,0.86,-2.41,1.65,70.35,17.40,31.00,9.940,
02/07/2025,12:27:38.74,-91.80,979.00,36.62,-1.02,1.09,1.93,1.20,71.85,18.45,30.86,9.940,
02/07/2025,12:27:38.84,-100.10,957.03,63.96,-2.17,-2.89,-0.37,1.65,73.05,17.85,30.67,9.940,
02/07/2025,12:27:38.94,-99.12,950.68,57.62,2.47,-3.85,-2.36,1.65,71.55,18.15,30.81,9.941,
02/07/2025,12:27:39.04,-103.03,988.77,14.16,5.26,-4.13,-1.20,1.95,70.80,18.15,31.00,9.941,
02/07/2025,12:27:39.14,-112.30,973.14,36.13,-0.44,-2.50,-1.01,1.20,72.60,18.45,30.71,9.941,
02/07/2025,12:27:39.24,-93.75,980.96,60.06,-0.66,-0.26,2.19,0.60,72.0,19.35,30.86,9.941,
02/07/2025,12:27:39.34,-78.13,969.73,62.50,-1.14,-3.87,-0.57,0.45,70.35,19.20,31.00,9.940,
02/07/2025,12:27:39.44,-85.94,957.03,62.99,0.40,0.02,3.04,0.30,72.0,20.10,31.05,9.940,
02/07/2025,12:27:39.54,-59.57,980.47,56.15,1.87,-0.33,0.32,0.0,72.0,18.0,31.14,9.940,
02/07/2025,12:27:39.65,-83.50,984.38,38.57,4.0,2.32,1.48,-0.45,73.05,17.40,31.00,9.940,
02/07/2025,12:27:39.75,-81.54,962.40,43.95,-0.22,-0.59,-1.97,0.60,72.90,18.30,31.00,9.940,
02/07/2025,12:27:39.85,-72.75,981.93,45.90,-0.08,-4.75,-1.21,0.30,71.25,18.75,30.86,9.940,
02/07/2025,12:27:39.95,-78.13,947.27,71.29,-1.26,-0.46,-2.39,1.95,72.60,16.65,31.00,9.940,
02/07/2025,12:27:40.05,-69.82,949.22,75.68,1.06,-2.12,-1.48,0.60,71.25,18.30,30.95,9.940,
02/07/2025,12:27:40.15,-82.52,971.19,52.73,3.56,1.37,-1.01,-0.15,72.30,19.95,30.81,9.940,
02/07/2025,12:27:40.25,-76.17,978.03,55.18,0.19,-1.92,-1.10,-0.45,70.80,17.40,31.14,9.940,
02/07/2025,12:27:40.35,-90.82,975.59,41.50,1.37,1.17,-1.21,1.05,72.0,17.25,30.95,9.940,
02/07/2025,12:27:40.45,-73.24,966.31,30.27,3.59,2.77,-0.79,0.60,72.90,17.25,31.05,9.940,
02/07/2025,12:27:40.55,-98.63,972.66,50.29,0.22,-0.47,-1.14,0.30,72.0,18.0,30.81,9.940,
02/07/2025,12:27:40.65,-72.75,980.47,41.50,3.89,-0.89,-0.69,0.15,71.85,17.85,31.00,9.941,
02/07/2025,12:27:40.75,-70.31,973.14,38.09,3.18,-1.35,-1.55,-0.60,70.20,17.55,30.95,9.940,
02/07/2025,12:27:40.85,-92.77,987.30,26.86,0.92,1.73,-0.81,0.45,72.60,17.85,31.05,9.940,
02/07/2025,12:27:40.95,-74.22,963.87,46.88,3.48,-0.27,0.66,-0.45,73.80,18.45,30.67,9.940,
02/07/2025,12:27:41.05,-96.19,959.96,48.83,6.89,-1.05,-1.18,0.0,71.25,18.0,30.86,9.940,
02/07/2025,12:27:41.15,-84.96,974.61,27.34,10.0,-1.37,1.18,1.20,71.85,16.35,30.67,9.940,
02/07/2025,12:27:41.26,-75.68,989.26,-1.46,8.81,-3.27,-0.34,-0.30,73.95,15.45,30.86,9.940,
02/07/2025,12:27:41.36,-84.47,961.91,11.23,9.87,-1.55,-5.76,0.15,72.30,16.05,30.86,9.940,
02/07/2025,12:27:41.46,-25.88,977.05,-16.60,5.76,-1.24,3.08,-0.15,74.10,13.50,31.14,9.940,
02/07/2025,12:27:41.56,-120.12,958.01,-41.99,7.12,6.27,-2.54,1.05,73.65,14.70,30.86,9.940,
02/07/2025,12:27:41.66,-110.84,965.82,-45.90,6.98,2.34,-3.89,0.15,73.35,13.50,30.81,9.940,
02/07/2025,12:27:41.76,-117.68,968.26,-17.58,4.53,1.67,0.18,2.10,73.95,12.60,30.86,9.940,
02/07/2025,12:27:41.86,-87.89,979.49,-36.13,0.11,2.21,1.56,-0.90,73.05,12.75,30.71,9.940,
02/07/2025,12:27:41.96,-82.03,968.26,-50.78,-0.46,4.91,1.66,0.60,73.95,12.15,31.00,9.940,
02/07/2025,12:27:42.06,-94.24,958.01,-44.92,6.89,-2.58,2.94,0.15,74.55,12.45,30.86,9.940,
02/07/2025,12:27:42.16,-46.39,977.54,-83.98,5.13,-3.98,-0.94,-0.15,74.10,12.0,30.67,9.940,
02/07/2025,12:27:42.26,-83.50,958.01,-93.26,5.98,0.65,-4.63,0.90,74.10,10.95,31.00,9.940,
02/07/2025,12:27:42.36,-110.84,963.38,-106.93,5.58,2.62,0.46,0.30,74.40,11.55,30.95,9.940,
02/07/2025,12:27:42.46,-109.86,979.00,-119.14,0.79,2.98,1.87,-0.15,73.35,10.95,30.95,9.940,
02/07/2025,12:27:42.56,-83.50,978.03,-99.61,0.63,0.70,0.71,1.80,74.40,10.35,31.05,9.940,
02/07/2025,12:27:42.67,-89.84,967.29,-100.10,3.50,0.31,0.53,0.60,75.45,10.35,31.14,9.940,
02/07/2025,12:27:42.77,-74.22,963.87,-101.07,4.06,2.21,1.24,0.60,75.15,9.30,31.05,9.940,
02/07/2025,12:27:42.87,-59.57,960.94,-94.73,5.20,1.66,-1.02,0.90,75.30,9.90,31.00,9.940,
02/07/2025,12:27:42.97,-73.24,958.50,-117.68,1.43,4.71,-5.47,0.30,73.65,11.10,31.05,9.940,
02/07/2025,12:27:43.07,-96.19,955.08,-107.91,5.33,7.62,-4.53,1.80,74.70,8.55,30.71,9.940,
02/07/2025,12:27:43.17,-83.50,946.29,-105.96,4.75,9.66,-3.51,2.10,75.15,8.55,30.62,9.940,
02/07/2025,12:27:43.27,-116.70,973.14,-141.11,5.48,3.71,-1.40,1.05,75.15,7.20,30.81,9.940,
02/07/2025,12:27:43.37,-93.75,975.10,-151.37,3.91,3.27,-0.88,1.05,75.15,8.55,30.81,9.940,
02/07/2025,12:27:43.47,-102.54,947.27,-121.09,3.23,4.48,-1.27,2.10,73.65,6.0,30.81,9.940,
02/07/2025,12:27:43.57,-94.24,928.22,-126.95,8.71,-2.51,2.99,0.45,74.55,6.30,30.86,9.940,
02/07/2025,12:27:43.67,-72.27,965.82,-179.69,7.47,-0.90,-2.97,1.95,74.10,5.55,30.86,9.940,
02/07/2025,12:27:43.77,-105.47,959.47,-179.69,1.25,-2.26,-1.14,1.35,75.15,5.70,30.95,9.940,
02/07/2025,12:27:43.87,-95.70,945.31,-179.20,3.95,0.05,-0.85,2.10,75.45,4.65,31.05,9.940,
02/07/2025,12:27:43.97,-134.77,956.05,-218.75,0.44,2.10,-0.71,3.45,74.85,5.10,31.14,9.940,
02/07/2025,12:27:44.07,-50.78,965.33,-170.41,-3.51,-1.95,-0.15,1.65,73.35,5.85,31.00,9.940,
02/07/2025,12:27:44.17,-114.75,931.15,-149.90,-1.89,0.0,-1.21,1.20,74.10,6.30,30.81,9.940,
02/07/2025,12:27:44.28,-111.33,955.57,-170.41,-0.27,-4.02,-1.48,1.20,74.55,6.90,30.95,9.940,
02/07/2025,12:27:44.38,-92.29,964.36,-152.83,-1.52,-1.69,0.35,2.25,76.05,6.60,31.00,9.940,
02/07/2025,12:27:44.48,-73.24,996.09,-173.34,-3.60,-0.20,1.75,0.45,74.85,6.90,30.81,9.940,
02/07/2025,12:27:44.58,-88.38,937.99,-119.63,-3.34,3.36,0.43,2.25,74.85,7.35,30.95,9.940,
02/07/2025,12:27:44.68,-70.31,963.87,-148.93,1.41,0.76,-0.71,1.35,73.65,6.75,31.05,9.940,
02/07/2025,12:27:44.78,-102.05,957.52,-148.93,1.53,-0.11,1.92,1.35,75.15,7.20,31.05,9.940,
02/07/2025,12:27:44.88,-100.10,947.75,-146.48,1.27,-2.05,-3.41,1.80,75.15,8.10,30.95,9.940,
02/07/2025,12:27:44.98,-107.91,974.12,-160.16,-1.76,0.33,-1.60,1.20,74.55,6.60,30.95,9.940,
02/07/2025,12:27:45.08,-116.70,935.55,-109.86,-0.58,2.02,-3.50,1.80,74.40,7.20,30.95,9.940,
02/07/2025,12:27:45.18,-98.14,986.82,-162.60,1.95,0.09,2.07,0.60,74.70,6.75,30.86,9.940,
02/07/2025,12:27:45.28,-109.86,966.80,-160.64,-0.90,-1.05,0.70,1.80,75.15,7.20,30.95,9.940,
02/07/2025,12:27:45.38,-96.68,940.43,-151.37,-0.05,-0.16,0.12,1.05,74.40,6.75,31.05,9.939,
02/07/2025,12:27:45.48,-91.31,957.52,-130.37,-0.17,2.20,-0.41,1.65,74.10,8.10,30.86,9.940,
02/07/2025,12:27:45.58,-112.79,968.75,-142.09,3.53,-2.11,1.03,2.55,74.40,6.45,31.00,9.940,
02/07/2025,12:27:45.69,-70.80,969.73,-139.16,1.60,-1.11,0.60,1.80,74.70,7.50,31.05,9.940,
02/07/2025,12:27:45.79,-98.14,962.40,-154.30,1.45,-0.67,0.05,1.05,75.45,8.55,31.14,9.940,
02/07/2025,12:27:45.89,-60.55,961.43,-130.37,-3.63,1.69,-0.76,0.90,74.10,6.90,30.81,9.940,
02/07/2025,12:27:45.99,-111.82,952.15,-116.21,4.80,2.53,-3.16,4.20,74.10,7.35,30.86,9.940,
02/07/2025,12:27:46.09,-99.12,964.84,-148.93,1.71,0.89,-2.82,0.30,75.15,7.50,31.00,9.940,
02/07/2025,12:27:46.19,-85.94,969.73,-181.64,2.28,-3.32,2.38,1.20,74.55,8.40,30.86,9.940,
02/07/2025,12:27:46.29,-62.50,962.40,-149.90,-6.69,0.53,-1.44,1.65,75.30,7.65,31.05,9.940,
02/07/2025,12:27:46.39,-117.68,939.94,-90.82,-0.20,3.44,-1.12,2.55,75.15,8.55,30.86,9.940,
02/07/2025,12:27:46.49,-104.98,949.22,-126.46,0.75,-1.40,-2.43,2.25,74.55,6.90,30.71,9.940,
02/07/2025,12:27:46.59,-98.14,952.64,-146.97,2.51,-0.69,1.86,1.65,73.80,7.65,31.14,9.940,
02/07/2025,12:27:46.69,-84.96,953.13,-134.77,2.61,2.95,-3.51,1.95,74.85,8.40,30.95,9.940,
02/07/2025,12:27:46.79,-109.38,956.54,-127.44,-0.95,0.72,-1.33,0.30,74.40,7.20,30.95,9.940,
02/07/2025,12:27:46.89,-101.56,951.17,-106.93,-2.10,2.29,-1.24,1.95,73.35,8.40,30.95,9.939,
02/07/2025,12:27:46.99,-94.73,967.77,-132.81,2.78,-2.25,-0.47,3.0,74.85,7.65,30.86,9.939,
02/07/2025,12:27:47.09,-94.24,979.00,-158.69,-0.11,0.18,1.76,0.90,74.55,7.35,30.67,9.940,
02/07/2025,12:27:47.19,-85.94,958.50,-130.86,0.08,0.57,-0.23,1.80,75.45,7.80,30.62,9.940,
02/07/2025,12:27:47.30,-94.24,937.01,-130.86,1.39,-0.02,1.01,1.80,74.70,8.55,30.81,9.940,
02/07/2025,12:27:47.40,-81.05,948.24,-111.33,-3.37,8.59,-2.60,1.65,75.30,8.40,30.52,9.940,
02/07/2025,12:27:47.50,-117.68,964.84,-128.91,3.50,4.75,1.68,0.90,74.10,8.40,30.67,9.940,
02/07/2025,12:27:47.60,-73.24,1007.32,-179.20,0.94,1.64,2.26,0.60,75.15,7.80,30.95,9.940,
02/07/2025,12:27:47.70,-76.66,933.59,-98.14,-2.62,4.77,0.26,-0.15,74.10,8.70,31.19,9.940,
02/07/2025,12:27:47.80,-59.57,971.68,-115.23,6.60,3.94,2.66,1.05,73.95,7.50,30.86,9.940,
02/07/2025,12:27:47.90,-70.80,977.05,-133.30,-1.77,1.64,-0.08,1.65,74.10,8.70,31.00,9.940,
02/07/2025,12:27:48.00,-78.13,948.24,-137.70,-1.16,-3.41,-1.81,1.65,75.30,8.40,30.95,9.940,
02/07/2025,12:27:48.10,-107.91,963.38,-168.46,1.49,-4.12,-3.78,2.10,74.40,8.55,31.14,9.940,
02/07/2025,12:27:48.20,-116.21,941.89,-119.14,0.28,-7.95,-0.69,2.25,75.30,8.70,31.14,9.940,
02/07/2025,12:27:48.30,-103.03,959.47,-124.51,4.09,-7.23,2.80,0.30,73.65,8.55,31.14,9.940,
02/07/2025,12:27:48.40,-21.48,983.89,-125.0,3.63,-2.92,2.76,-0.30,75.45,8.55,30.86,9.939,
02/07/2025,12:27:48.50,-44.92,976.07,-140.14,12.18,13.05,9.29,0.45,76.05,9.45,30.86,9.939,
02/07/2025,12:27:48.60,-62.50,980.96,-188.48,4.53,8.21,1.13,0.90,74.55,8.70,30.86,9.939,
02/07/2025,12:27:48.70,-40.53,979.98,-167.97,-3.83,2.02,-6.66,0.0,74.70,8.25,30.67,9.940,
02/07/2025,12:27:48.81,-96.19,971.68,-137.21,-9.76,-6.09,-6.64,-1.65,73.35,8.40,30.95,9.940,
02/07/2025,12:27:48.91,-72.27,955.57,-90.33,-9.26,-14.23,-0.93,-0.15,73.80,9.90,30.95,9.940,
02/07/2025,12:27:49.01,-101.56,948.24,-85.45,-5.40,-9.60,-4.87,0.45,74.10,10.95,31.05,9.940,
02/07/2025,12:27:49.11,-104.49,962.40,-83.98,-3.05,-5.25,-1.35,-0.60,73.95,11.10,30.95,9.940,
02/07/2025,12:27:49.21,-88.87,983.40,-86.43,-2.77,-2.39,4.29,-0.15,72.30,12.75,30.81,9.940,
02/07/2025,12:27:49.31,-59.57,958.50,-78.61,-0.86,-2.16,0.06,-0.45,74.10,13.50,30.81,9.940,
02/07/2025,12:27:49.41,-97.17,973.63,-64.45,-0.90,1.31,-2.61,0.45,73.35,12.45,30.81,9.940,
02/07/2025,12:27:49.51,-77.64,950.68,-61.52,1.18,-0.40,0.22,-1.65,73.05,12.45,30.95,9.940,
02/07/2025,12:27:49.61,-62.01,979.00,-83.98,-0.76,0.64,-1.60,0.0,72.90,13.35,30.86,9.940,
02/07/2025,12:27:49.71,-87.89,973.14,-85.45,1.58,1.44,-3.14,-0.15,73.80,13.05,30.95,9.940,
02/07/2025,12:27:49.81,-71.78,977.54,-86.91,-1.88,1.75,-1.21,-1.05,72.45,13.35,30.95,9.940,
02/07/2025,12:27:49.91,-93.26,966.31,-83.01,2.94,-0.70,-1.51,-0.45,75.30,12.45,31.00,9.939,
02/07/2025,12:27:50.01,-72.27,974.61,-69.34,-0.62,-3.52,-1.66,-0.15,72.60,12.45,31.24,9.939,
02/07/2025,12:27:50.11,-84.47,947.75,-74.71,-0.32,-2.98,1.02,-1.20,72.60,12.75,30.95,9.939,
02/07/2025,12:27:50.21,-99.12,967.77,-65.43,3.44,-1.26,1.46,0.30,72.90,13.65,31.05,9.939,
02/07/2025,12:27:50.32,-117.19,980.96,-59.57,-1.42,-1.11,-3.49,0.15,73.80,12.75,30.86,9.939,
02/07/2025,12:27:50.42,-99.12,994.14,-79.59,-1.79,0.76,2.85,0.0,73.20,12.90,31.14,9.940,
02/07/2025,12:27:50.52,-71.29,967.77,-59.08,-4.20,0.62,2.64,-0.60,73.65,12.60,31.05,9.940,
02/07/2025,12:27:50.62,-103.03,957.03,-54.69,1.29,-1.57,2.91,-1.20,73.80,14.85,30.86,9.940,
02/07/2025,12:27:50.72,-76.17,956.54,-55.66,-2.04,-0.34,4.08,-0.30,71.70,12.90,30.95,9.940,
02/07/2025,12:27:50.82,-37.60,952.64,-3.42,-1.10,-0.69,0.68,-1.05,72.45,13.35,31.00,9.940,
02/07/2025,12:27:50.92,-73.73,950.20,-41.02,2.15,0.64,-1.43,0.15,73.80,13.50,30.81,9.940,
02/07/2025,12:27:51.02,-54.20,979.98,-40.53,4.15,-2.19,0.25,-1.05,73.65,15.15,31.00,9.940,
02/07/2025,12:27:51.12,-96.19,982.91,-53.71,-3.48,1.78,-4.17,0.15,72.60,14.25,30.81,9.940,
02/07/2025,12:27:51.22,-50.29,973.63,-55.18,2.27,-1.49,2.95,-1.80,72.0,14.70,30.86,9.940,
02/07/2025,12:27:51.32,-114.75,971.19,-39.06,-0.16,0.99,-3.80,-2.10,72.45,13.95,30.71,9.940,
02/07/2025,12:27:51.42,-81.54,953.61,-25.39,-5.18,-2.64,3.90,-1.05,72.45,14.40,30.95,9.940,
02/07/2025,12:27:51.52,-37.60,958.50,-14.65,-0.17,1.24,0.60,-2.55,73.95,13.95,30.67,9.939,
02/07/2025,12:27:51.62,2.93,969.73,-70.31,11.44,2.23,1.01,-1.80,73.20,14.70,30.81,9.939,
02/07/2025,12:27:51.72,-90.82,999.02,-67.38,-0.96,-0.09,-1.80,-1.20,73.05,14.25,30.67,9.939,
02/07/2025,12:27:51.83,-47.85,930.66,-25.39,2.79,-2.60,1.84,-1.95,73.80,14.25,30.86,9.939,
02/07/2025,12:27:51.93,-46.39,958.98,-41.99,-0.15,-2.17,-3.50,-1.35,73.65,13.95,31.00,9.939,
02/07/2025,12:27:52.03,-76.17,979.00,-51.76,6.43,-2.20,-4.44,-1.65,74.10,13.80,30.81,9.940,
02/07/2025,12:27:52.13,-62.99,968.26,-78.61,3.61,1.11,-2.53,0.0,72.45,13.65,30.86,9.940,
02/07/2025,12:27:52.23,-59.57,984.38,-73.24,3.05,0.81,2.18,-1.20,74.10,12.75,31.00,9.940,
02/07/2025,12:27:52.33,-82.52,968.26,-75.20,0.08,0.36,2.21,0.15,74.55,12.75,30.95,9.940,
02/07/2025,12:27:52.43,-49.32,972.66,-71.29,-2.83,0.60,-0.20,-3.45,74.10,12.75,30.86,9.940,
02/07/2025,12:27:52.53,-55.66,998.05,-88.38,-1.31,0.27,0.85,-2.25,73.05,12.75,31.00,9.940,
02/07/2025,12:27:52.63,-75.20,973.63,-81.05,0.36,1.73,-5.12,-1.05,72.45,13.95,30.67,9.940,
02/07/2025,12:27:52.73,-55.18,960.94,-64.45,-1.06,-2.41,0.49,-1.65,73.35,13.50,31.05,9.940,
02/07/2025,12:27:52.83,-70.80,975.59,-53.71,-1.78,-2.02,-1.68,-0.90,73.05,13.50,31.14,9.940,
02/07/2025,12:27:52.93,-65.92,944.34,-63.48,0.93,-2.53,-3.05,-1.35,73.65,13.35,30.95,9.939,
02/07/2025,12:27:53.03,-45.90,962.40,-80.08,-1.25,0.60,0.02,-1.95,73.80,12.75,31.14,9.939,
02/07/2025,12:27:53.13,-48.34,954.10,-65.43,0.0,1.50,2.53,-1.80,73.20,15.15,30.95,9.939,
02/07/2025,12:27:53.23,-67.38,957.03,-48.83,-2.05,-2.84,4.88,-1.65,72.60,14.55,30.86,9.939,
02/07/2025,12:27:53.34,-48.83,992.68,-60.55,3.69,-1.63,-5.79,-0.90,75.30,13.05,30.67,9.939,
02/07/2025,12:27:53.44,-48.34,951.66,-35.16,1.21,3.46,-0.50,-1.65,73.35,13.80,30.86,9.939,
02/07/2025,12:27:53.54,-96.68,977.54,-55.66,8.92,2.95,-2.34,-2.25,72.60,13.50,31.00,9.939,
02/07/2025,12:27:53.64,-48.83,952.15,-48.83,5.49,1.52,-3.91,-1.65,73.80,12.75,30.67,9.939,
02/07/2025,12:27:53.74,-71.78,966.80,-91.31,9.89,2.08,-0.53,-0.60,74.40,11.10,30.86,9.940,
02/07/2025,12:27:53.84,-77.64,975.10,-115.23,3.22,2.43,-1.44,-2.70,74.10,11.70,30.86,9.940,
02/07/2025,12:27:53.94,-84.47,992.19,-93.75,-1.85,1.88,-2.31,-0.30,73.95,10.35,30.71,9.940,
02/07/2025,12:27:54.04,-78.61,969.24,-47.85,-7.46,6.92,2.59,-1.65,73.35,12.45,30.52,9.940,
02/07/2025,12:27:54.14,-37.11,924.80,-34.67,-3.48,3.86,4.19,-3.0,73.35,11.70,31.05,9.940,
02/07/2025,12:27:54.24,-33.20,961.91,-75.20,0.66,7.10,2.73,-0.45,74.55,12.75,30.86,9.940,
02/07/2025,12:27:54.34,-70.31,938.48,-99.61,14.95,6.47,-3.03,-0.60,74.70,10.35,30.81,9.940,
02/07/2025,12:27:54.44,-39.06,1000.49,-170.90,9.31,1.55,-4.45,-1.05,74.40,9.30,30.86,9.940,
02/07/2025,12:27:54.54,-57.13,966.80,-128.42,2.47,5.40,-4.34,-1.05,75.15,9.60,31.14,9.939,
02/07/2025,12:27:54.64,-106.45,974.12,-167.48,7.31,5.70,-4.53,0.60,73.95,9.30,30.95,9.939,
02/07/2025,12:27:54.74,-59.57,965.33,-173.83,4.21,2.53,-2.83,-0.30,74.40,7.20,31.00,9.939,
02/07/2025,12:27:54.85,-93.26,973.63,-176.27,3.50,4.34,-1.99,-1.20,74.85,6.60,30.86,9.939,
02/07/2025,12:27:54.95,-93.26,957.03,-147.95,4.16,2.57,-6.02,0.0,73.95,7.20,30.86,9.939,
02/07/2025,12:27:55.05,-77.64,966.31,-164.06,-3.36,0.56,-1.92,0.90,73.80,8.40,30.86,9.939,
02/07/2025,12:27:55.15,-98.14,951.17,-136.23,-1.34,-1.63,-2.95,1.95,74.85,8.10,31.05,9.939,
02/07/2025,12:27:55.25,-96.19,923.34,-119.14,1.17,0.82,-1.29,-0.30,75.15,8.25,31.00,9.939,
02/07/2025,12:27:55.35,-85.94,975.59,-163.09,0.08,-0.40,-1.39,0.90,74.10,8.10,31.05,9.940,
02/07/2025,12:27:55.45,-63.48,951.17,-115.23,-5.74,2.04,3.19,0.45,75.30,8.10,31.05,9.940,
02/07/2025,12:27:55.55,-46.39,951.66,-114.26,3.41,6.30,0.77,0.0,73.65,9.30,30.86,9.940,
02/07/2025,12:27:55.65,-76.17,944.82,-143.07,11.44,3.66,-1.06,1.05,73.20,7.50,30.86,9.940,
02/07/2025,12:27:55.75,-53.71,967.29,-166.50,6.35,1.82,-0.06,-0.30,73.95,7.50,30.86,9.940,
02/07/2025,12:27:55.85,-78.13,972.17,-182.62,2.71,2.30,-3.27,-0.45,74.10,7.35,30.86,9.940,
02/07/2025,12:27:55.95,-72.75,962.89,-168.95,-0.40,0.83,0.38,0.90,74.55,7.65,30.67,9.940,
02/07/2025,12:27:56.05,-47.36,965.33,-173.83,1.30,2.89,-1.40,0.0,73.20,6.75,30.52,9.939,
02/07/2025,12:27:56.15,-84.47,950.68,-185.06,3.33,-0.09,-5.58,0.30,73.95,7.20,30.43,9.939,
02/07/2025,12:27:56.25,-79.59,944.34,-161.13,-1.05,-1.51,-2.40,1.65,73.35,6.30,30.81,9.939,
02/07/2025,12:27:56.36,-101.56,967.77,-179.20,0.46,-0.06,0.05,1.20,74.85,7.35,30.67,9.939,
02/07/2025,12:27:56.46,-89.84,974.61,-148.44,0.26,-1.79,1.22,0.30,75.15,9.0,30.71,9.939,
02/07/2025,12:27:56.56,-65.92,986.82,-165.04,-3.50,-4.04,-0.85,1.20,75.30,7.35,31.05,9.939,
02/07/2025,12:27:56.66,-104.49,931.64,-107.42,-5.08,-1.10,-5.38,0.60,73.65,9.0,30.86,9.939,
02/07/2025,12:27:56.76,-108.89,924.80,-151.37,4.59,2.49,-0.50,0.60,75.45,7.80,31.05,9.939,
02/07/2025,12:27:56.86,-92.77,973.63,-165.04,4.40,-1.30,0.40,0.45,74.55,7.65,30.86,9.939,
02/07/2025,12:27:56.96,-94.73,948.24,-135.74,-1.59,-4.09,-2.05,1.80,73.95,9.0,30.95,9.939,
02/07/2025,12:27:57.06,-90.82,952.15,-131.84,-1.69,-4.31,0.28,0.60,73.20,9.30,31.00,9.940,
02/07/2025,12:27:57.16,-67.38,948.73,-129.39,1.03,-8.20,1.34,0.90,75.30,8.40,31.14,9.940,
02/07/2025,12:27:57.26,-70.31,969.73,-148.44,1.94,0.16,-3.66,0.30,74.40,7.80,30.95,9.940,
02/07/2025,12:27:57.36,-120.61,938.96,-138.67,4.02,1.73,-4.44,0.15,74.55,9.15,31.00,9.940,
02/07/2025,12:27:57.46,-108.89,985.84,-172.85,0.49,0.21,0.89,1.65,74.55,9.15,31.05,9.940,
02/07/2025,12:27:57.56,-110.35,943.85,-145.51,3.70,0.79,-0.16,0.60,74.70,8.25,30.86,9.939,
02/07/2025,12:27:57.66,-93.26,966.80,-175.78,3.35,-0.02,-2.94,0.45,73.35,8.70,30.71,9.939,
02/07/2025,12:27:57.76,-95.70,952.15,-173.83,2.31,2.31,-2.24,1.20,75.30,6.30,30.81,9.939,
02/07/2025,12:27:57.87,-93.75,967.29,-165.04,0.82,-1.70,-0.63,0.45,74.10,6.90,30.67,9.939,
02/07/2025,12:27:57.97,-123.54,949.71,-169.92,3.40,4.81,-0.97,1.80,74.70,8.55,30.67,9.939,
02/07/2025,12:27:58.07,-106.93,960.45,-194.34,7.65,1.45,-1.51,0.60,74.40,7.50,30.62,9.939,
02/07/2025,12:27:58.17,-100.10,953.13,-213.87,0.94,0.81,0.49,0.90,74.10,7.35,30.81,9.939,
02/07/2025,12:27:58.27,-110.84,954.59,-193.85,-0.52,2.21,-1.93,2.85,73.65,6.0,30.67,9.939,
02/07/2025,12:27:58.37,-85.45,946.78,-181.15,-0.91,2.29,-1.53,2.10,73.95,6.75,31.00,9.939,
02/07/2025,12:27:58.47,-102.05,954.59,-180.18,-1.68,0.16,-1.21,0.90,73.80,5.85,30.86,9.939,
02/07/2025,12:27:58.57,-90.33,946.29,-185.06,-0.62,5.14,0.68,0.30,73.95,6.45,31.05,9.939,
02/07/2025,12:27:58.67,-83.01,939.45,-165.53,-3.69,4.36,-2.57,1.05,74.70,6.45,31.05,9.940,
02/07/2025,12:27:58.77,-94.73,955.57,-166.50,-1.11,5.98,0.41,0.0,73.20,6.0,30.67,9.940,
02/07/2025,12:27:58.87,-89.36,957.03,-186.04,2.55,3.98,1.67,1.35,73.20,5.70,30.81,9.940,
02/07/2025,12:27:58.97,-42.48,954.10,-160.64,-2.15,6.50,0.34,0.45,74.10,7.35,30.71,9.940,
02/07/2025,12:27:59.07,-70.80,946.78,-134.28,-2.89,6.47,1.63,1.65,74.85,5.10,31.00,9.939,
02/07/2025,12:27:59.17,-82.03,906.25,-118.16,-4.23,5.72,6.34,1.05,75.45,5.70,30.86,9.939,
02/07/2025,12:27:59.27,-7.32,972.17,-210.94,5.50,4.20,-1.33,0.60,73.95,6.0,30.81,9.939,
02/07/2025,12:27:59.38,-26.86,981.45,-208.50,1.88,-0.69,0.04,0.60,74.40,6.75,31.00,9.939,
02/07/2025,12:27:59.48,-38.09,963.87,-188.96,-5.31,-0.25,-5.40,0.90,74.55,4.50,30.86,9.939,
02/07/2025,12:27:59.58,-72.27,926.76,-111.33,-6.49,-1.59,-6.08,1.65,74.55,7.35,30.95,9.939,
02/07/2025,12:27:59.68,-64.94,950.68,-103.52,-2.35,-1.86,-6.79,1.20,74.10,6.60,31.05,9.939,
02/07/2025,12:27:59.78,-106.45,948.73,-135.25,8.31,-4.04,-4.44,3.0,74.85,5.55,31.05,9.939,
