rtcDate,rtcTime,aX,aY,aZ,gX,gY,gZ,mX,mY,mZ,imu_degC,output_Hz,
07/02/2025,12:07:16.12,719.24,-116.70,-750.0,-25.98,25.12,8.82,-30.60,31.20,-14.25,34.74,0.0,
07/02/2025,12:07:16.22,747.07,-106.93,-681.15,-31.24,54.88,1.62,-32.70,31.05,-9.60,34.64,20.0,
07/02/2025,12:07:16.32,813.96,-96.19,-625.98,-61.27,45.43,-14.61,-33.45,31.80,-6.45,34.69,15.0,
07/02/2025,12:07:16.42,733.40,-49.32,-675.29,23.63,55.21,3.08,-32.85,33.15,-2.25,34.74,13.333,
07/02/2025,12:07:16.52,759.77,131.84,-571.29,-98.47,7.87,-110.45,-31.50,38.25,3.15,34.93,12.500,
07/02/2025,12:07:16.62,767.58,403.32,-243.65,-30.90,4.31,-113.99,-27.0,44.10,4.05,34.88,12.0,
07/02/2025,12:07:16.72,1132.81,709.47,-345.70,61.60,-214.68,83.25,-21.15,49.50,5.85,34.93,11.667,
07/02/2025,12:07:16.82,428.22,344.24,-617.68,-73.25,-36.79,-4.27,-24.0,47.55,0.90,34.64,11.268,
07/02/2025,12:07:16.92,647.95,555.66,-315.92,-7.65,109.95,-118.50,-16.35,52.20,12.75,34.64,11.111,
07/02/2025,12:07:17.03,652.34,609.38,-133.79,-9.40,67.31,-83.78,-9.45,54.60,16.95,34.83,10.989,
07/02/2025,12:07:17.13,619.14,772.95,-95.21,-22.45,-2.67,-76.34,-5.25,58.65,17.40,34.74,10.891,
07/02/2025,12:07:17.23,583.50,747.07,-180.66,16.93,16.21,-3.75,-1.05,58.35,16.20,34.93,10.811,
07/02/2025,12:07:17.33,614.26,883.30,-58.11,-46.87,56.34,3.92,-0.60,59.10,16.20,34.93,10.744,
07/02/2025,12:07:17.43,589.84,695.31,-132.81,-26.48,65.64,27.0,-2.10,57.60,21.60,34.88,10.687,
07/02/2025,12:07:17.53,651.86,712.40,-28.81,-14.52,125.38,22.82,-0.30,55.80,27.0,34.31,10.638,
07/02/2025,12:07:17.63,748.54,727.05,135.25,-31.43,-7.71,4.21,2.25,54.45,26.85,34.74,10.596,
07/02/2025,12:07:17.73,654.79,704.59,227.05,-28.76,-39.53,-8.30,1.35,55.05,25.95,34.64,10.559,
07/02/2025,12:07:17.83,595.70,673.83,62.99,36.23,-86.01,-27.56,0.15,55.50,27.90,35.07,10.526,
07/02/2025,12:07:17.93,623.05,779.30,75.20,0.64,-28.59,-15.95,-0.30,55.35,25.95,34.93,10.497,
07/02/2025,12:07:18.03,624.02,826.66,59.08,-7.12,-13.47,0.62,-1.65,55.20,25.35,34.74,10.417,
07/02/2025,12:07:18.13,484.86,711.91,67.87,-30.0,-5.53,3.62,-0.60,55.05,27.0,34.64,10.396,
07/02/2025,12:07:18.23,587.40,787.11,104.00,-11.95,7.18,-7.18,-1.05,53.10,27.30,34.64,10.377,
07/02/2025,12:07:18.34,552.25,835.45,159.67,-12.10,6.87,-2.08,-1.05,53.40,25.50,34.83,10.360,
07/02/2025,12:07:18.44,570.80,841.80,134.28,3.18,-18.18,1.98,0.0,53.40,28.05,34.93,10.345,
07/02/2025,12:07:18.54,600.10,814.94,129.39,14.24,-6.98,-15.63,-0.60,54.60,26.70,34.88,10.331,
07/02/2025,12:07:18.64,572.75,746.58,30.27,5.56,-78.37,26.95,0.60,54.60,25.20,34.88,10.317,
07/02/2025,12:07:18.74,620.12,779.30,12.21,-16.22,-85.97,24.40,-5.40,56.10,23.70,34.64,10.305,
07/02/2025,12:07:18.84,460.45,528.81,-245.61,40.42,-159.47,47.92,-11.10,55.20,19.20,34.64,10.294,
07/02/2025,12:07:18.94,630.37,706.05,-191.89,-14.58,-0.59,1.96,-12.60,54.45,16.65,34.55,10.284,
07/02/2025,12:07:19.04,618.16,683.59,-210.94,-2.44,5.85,-14.89,-11.85,52.95,17.40,34.64,10.274,
07/02/2025,12:07:19.14,591.31,711.43,-310.55,17.22,-36.16,2.47,-11.70,54.60,16.50,34.69,10.265,
07/02/2025,12:07:19.24,672.85,834.96,-194.34,14.92,-26.07,17.03,-13.20,52.35,12.15,34.88,10.224,
07/02/2025,12:07:19.34,555.18,616.21,-396.48,14.76,9.60,20.89,-13.50,54.45,11.70,34.64,10.217,
07/02/2025,12:07:19.44,642.09,661.62,-367.19,-7.36,-22.44,-1.39,-15.15,52.50,12.45,34.40,10.210,
07/02/2025,12:07:19.55,323.73,466.80,-511.72,-10.24,-48.34,60.59,-16.65,54.45,9.45,34.64,10.204,
07/02/2025,12:07:19.65,914.55,1008.79,-207.52,-13.72,52.47,-2.70,-16.35,52.50,12.0,34.69,10.198,
07/02/2025,12:07:19.75,590.33,597.66,-375.0,-8.82,51.76,-24.38,-16.80,51.90,13.35,34.64,10.193,
07/02/2025,12:07:19.85,713.87,666.99,-388.18,-8.76,118.52,-10.84,-12.30,52.50,17.40,34.74,10.188,
07/02/2025,12:07:19.95,726.07,883.79,-14.16,-38.13,72.28,-62.36,-6.60,54.60,21.60,34.64,10.183,
07/02/2025,12:07:20.05,1214.36,1358.89,126.95,-5.58,19.29,-88.92,0.0,54.60,25.20,34.64,10.178,
07/02/2025,12:07:20.15,512.21,995.12,22.95,22.70,-18.95,-41.59,4.20,54.45,27.15,34.50,10.174,
07/02/2025,12:07:20.25,326.17,887.70,-139.16,-19.59,63.32,-38.36,10.20,56.85,24.90,34.64,10.169,
07/02/2025,12:07:20.35,282.23,912.11,138.67,-1.37,5.69,-22.14,14.10,54.0,26.40,34.83,10.165,
07/02/2025,12:07:20.45,287.60,937.99,98.14,-20.01,0.85,-16.29,15.0,52.65,27.30,34.88,10.162,
07/02/2025,12:07:20.55,244.63,937.50,155.27,13.66,-22.42,-3.22,16.80,53.10,28.50,34.69,10.135,
07/02/2025,12:07:20.65,281.74,1012.70,96.19,3.63,-37.42,-22.01,15.0,50.85,29.10,34.83,10.132,
07/02/2025,12:07:20.76,204.59,950.20,130.86,9.24,-1.85,-7.21,16.05,52.35,28.05,34.64,10.129,
07/02/2025,12:07:20.86,119.14,756.84,-27.83,-7.19,9.89,98.44,12.75,49.65,30.30,34.64,10.127,
07/02/2025,12:07:20.96,231.93,930.18,120.61,-9.06,4.14,8.17,12.0,51.15,30.90,34.40,10.124,
07/02/2025,12:07:21.06,242.19,963.38,125.0,-5.80,16.18,8.95,14.70,52.35,31.35,34.64,10.121,
07/02/2025,12:07:21.16,221.19,938.48,160.64,-10.15,19.99,-0.96,13.95,50.40,31.65,34.83,10.119,
07/02/2025,12:07:21.26,412.11,640.63,-347.66,-13.08,16.43,17.75,14.85,51.30,31.50,34.93,10.117,
07/02/2025,12:07:21.36,224.61,1032.71,115.23,32.56,-25.17,28.65,14.25,52.65,29.55,34.93,10.115,
07/02/2025,12:07:21.46,352.54,838.38,217.29,-7.06,29.11,22.98,12.60,53.25,27.60,34.93,10.112,
07/02/2025,12:07:21.56,76.66,663.57,262.21,15.18,-55.21,-16.85,11.40,56.55,26.70,35.03,10.110,
07/02/2025,12:07:21.66,302.73,910.64,61.52,15.69,-26.34,40.46,8.70,56.10,27.0,34.64,10.108,
07/02/2025,12:07:21.76,449.71,1011.72,-28.32,28.49,9.79,11.84,7.05,57.0,26.10,34.74,10.088,
07/02/2025,12:07:21.86,354.49,574.22,-14.65,43.91,1.13,-26.11,6.30,55.95,23.55,34.74,10.087,
07/02/2025,12:07:21.96,253.42,1123.54,-97.17,30.98,-27.33,-34.92,4.20,57.0,22.80,34.64,10.085,
07/02/2025,12:07:22.07,184.08,977.05,-85.45,0.63,-62.03,-45.94,6.0,57.90,21.75,34.74,10.084,
07/02/2025,12:07:22.17,266.11,922.85,185.55,201.99,0.92,9.0,7.35,56.85,24.90,35.03,10.083,
07/02/2025,12:07:22.27,130.37,978.52,-297.36,-45.42,-1.13,0.76,8.40,61.05,9.30,35.07,10.081,
07/02/2025,12:07:22.37,221.68,866.70,-224.12,-76.40,6.36,-3.95,9.75,61.20,9.15,34.83,10.080,
07/02/2025,12:07:22.47,217.29,964.36,-283.69,-74.69,5.66,12.42,7.80,60.15,12.0,34.69,10.079,
07/02/2025,12:07:22.57,246.58,913.09,-273.44,-13.41,-5.28,-9.79,6.15,61.05,13.95,34.93,10.078,
07/02/2025,12:07:22.67,148.44,976.56,-384.28,-47.54,-18.40,-11.44,7.95,61.05,14.70,34.74,10.076,
07/02/2025,12:07:22.77,264.65,1161.62,-285.64,-24.21,11.66,-10.14,9.15,59.85,19.05,35.07,10.075,
07/02/2025,12:07:22.87,547.85,1222.17,-1125.98,-63.37,-5.80,-9.48,9.15,61.50,23.70,34.93,10.074,
07/02/2025,12:07:22.97,185.55,942.87,-3.91,-4.43,1.72,-2.82,9.0,60.90,30.0,34.93,10.058,
07/02/2025,12:07:23.07,181.15,1010.74,-4.39,-5.76,-7.25,4.38,11.10,59.70,29.40,34.69,10.057,
07/02/2025,12:07:23.17,-1293.95,1999.94,1999.94,23.78,250.13,250.13,10.80,60.45,30.0,34.69,10.057,
07/02/2025,12:07:23.28,167.97,1012.21,231.93,-21.66,2.31,-4.60,18.0,54.60,35.25,34.64,10.056,
07/02/2025,12:07:23.38,160.64,926.76,162.11,12.16,-6.34,6.10,18.0,53.85,36.45,34.64,10.055,
07/02/2025,12:07:23.48,198.73,967.29,89.36,29.82,-2.19,2.87,18.15,55.95,35.55,34.88,10.054,
07/02/2025,12:07:23.58,182.62,946.29,79.59,-2.05,4.47,-1.05,18.75,55.80,33.90,34.74,10.054,
07/02/2025,12:07:23.68,174.80,967.29,105.47,-2.10,0.87,4.03,17.55,56.55,33.15,34.69,10.053,
07/02/2025,12:07:23.78,179.69,972.66,93.26,-3.77,7.59,-8.23,16.80,55.35,33.90,34.74,10.052,
07/02/2025,12:07:23.88,153.81,945.80,128.42,-3.85,2.93,2.65,19.95,54.45,35.85,34.64,10.052,
07/02/2025,12:07:23.98,133.30,891.60,206.05,-42.37,-2.98,-5.50,18.15,54.75,34.35,34.74,10.051,
07/02/2025,12:07:24.08,163.09,969.24,177.25,-7.87,-5.21,1.92,18.15,53.70,36.60,34.64,10.050,
07/02/2025,12:07:24.18,158.20,1011.72,123.05,-26.09,0.79,-0.88,17.70,52.20,37.95,34.93,10.037,
07/02/2025,12:07:24.28,160.64,927.25,166.02,-4.41,-2.82,-3.93,19.20,52.95,39.15,34.69,10.037,
07/02/2025,12:07:24.38,161.13,926.27,177.73,3.67,1.07,-0.50,18.45,52.20,38.40,34.88,10.036,
07/02/2025,12:07:24.49,132.32,954.59,218.26,18.03,3.83,-1.98,19.20,52.50,36.90,34.93,10.036,
07/02/2025,12:07:24.59,127.44,960.45,93.26,11.50,10.57,2.02,19.50,55.05,35.25,34.40,10.035,
07/02/2025,12:07:24.69,149.90,951.17,116.70,7.57,12.68,-1.89,20.40,53.70,36.15,34.50,10.035,
07/02/2025,12:07:24.79,125.0,976.07,99.61,2.82,-0.30,-2.49,20.10,54.60,33.45,34.88,10.035,
07/02/2025,12:07:24.89,142.09,954.10,95.21,2.86,-5.24,-3.27,20.40,54.45,34.80,34.74,10.034,
07/02/2025,12:07:24.99,104.98,983.40,80.57,10.94,-0.15,-8.19,20.85,56.10,32.70,34.93,10.034,
07/02/2025,12:07:25.09,111.82,973.14,64.45,-10.26,-21.0,-12.63,20.40,54.0,33.60,35.03,10.033,
07/02/2025,12:07:25.19,23.93,912.60,85.94,0.21,-13.11,-15.27,21.60,54.60,33.45,34.83,10.033,
07/02/2025,12:07:25.29,67.87,912.11,47.36,3.74,10.28,-7.38,21.60,57.30,33.15,34.69,10.033,
07/02/2025,12:07:25.39,63.48,1050.29,46.88,55.45,18.81,-12.53,21.45,57.90,29.40,34.69,10.022,
07/02/2025,12:07:25.49,89.36,1017.09,-93.75,2.89,-25.50,-1.67,23.70,57.90,27.15,34.83,10.021,
07/02/2025,12:07:25.59,123.54,991.70,-100.59,11.87,-88.99,14.28,23.10,58.80,27.30,34.64,10.021,
07/02/2025,12:07:25.70,-58.11,959.96,-22.95,-12.56,-61.79,12.63,17.70,58.95,27.15,34.69,10.021,
07/02/2025,12:07:25.80,21.48,930.18,-153.32,13.68,-52.67,1.68,15.90,58.95,30.75,34.88,10.021,
07/02/2025,12:07:25.90,75.20,837.40,-166.50,-0.36,72.30,-70.28,18.75,58.35,27.75,34.74,10.020,
07/02/2025,12:07:26.00,-191.41,938.96,-204.10,20.45,-12.84,16.33,22.05,59.10,25.20,34.74,10.020,
07/02/2025,12:07:26.10,-89.36,945.80,-175.78,-21.42,45.05,6.27,21.60,60.30,25.20,34.50,10.020,
07/02/2025,12:07:26.20,-35.64,992.68,-164.55,5.09,3.91,-3.61,22.20,60.15,24.60,34.93,10.020,
07/02/2025,12:07:26.30,-59.08,941.41,-152.83,-4.23,9.86,-5.78,21.45,60.15,24.60,34.74,10.020,
07/02/2025,12:07:26.40,733.89,493.65,-820.31,48.94,20.59,23.28,22.80,59.10,23.10,34.93,10.019,
07/02/2025,12:07:26.50,42.97,732.42,-176.27,46.50,-6.90,-10.82,25.35,58.80,25.20,34.74,10.019,
07/02/2025,12:07:26.60,-98.63,901.86,-355.96,-23.47,9.15,9.73,21.75,61.20,21.45,34.88,10.010,
07/02/2025,12:07:26.70,8.79,929.20,-112.79,11.12,7.47,1.27,24.0,59.40,22.05,34.69,10.009,
07/02/2025,12:07:26.80,-7.81,958.98,-250.49,-4.29,5.40,1.66,23.55,59.85,21.90,34.64,10.009,
07/02/2025,12:07:26.90,-10.25,971.68,-220.21,7.02,11.63,-4.37,22.20,60.15,22.05,34.64,10.009,
07/02/2025,12:07:27.01,-32.71,971.19,-238.77,2.88,-5.99,1.53,24.15,60.75,20.55,34.64,10.009,
07/02/2025,12:07:27.11,1.46,947.75,-223.63,-0.15,-1.45,-5.15,25.20,61.20,19.95,34.64,10.009,
07/02/2025,12:07:27.21,-26.37,932.13,-224.61,2.44,-1.18,2.74,23.70,61.65,19.20,34.88,10.009,
07/02/2025,12:07:27.31,-21.97,946.78,-237.30,-0.44,-1.05,-2.72,23.70,59.70,20.25,34.64,10.009,
07/02/2025,12:07:27.41,-23.93,946.29,-255.86,0.47,4.62,-2.32,25.20,61.20,19.65,34.64,10.009,
07/02/2025,12:07:27.51,-47.85,947.75,-223.14,3.38,3.27,2.50,26.25,59.70,20.25,34.69,10.009,
07/02/2025,12:07:27.61,-16.11,960.45,-248.54,2.27,3.79,0.95,23.55,61.50,19.35,34.40,10.009,
07/02/2025,12:07:27.71,-48.83,937.01,-234.86,2.02,10.11,-5.02,24.90,59.55,19.80,34.74,10.009,
07/02/2025,12:07:27.81,-38.09,970.21,-267.09,2.65,2.73,-0.21,25.35,60.75,19.05,34.64,10.0,
07/02/2025,12:07:27.91,-37.60,845.21,-236.33,-1.72,2.75,-2.81,26.55,59.70,18.90,34.74,10.0,
07/02/2025,12:07:28.01,-33.20,1049.80,-299.32,10.27,6.49,0.59,25.65,61.50,17.25,34.93,10.0,
07/02/2025,12:07:28.11,-15.14,917.48,-245.61,-4.37,2.07,-3.23,25.20,60.90,17.40,34.74,10.0,
07/02/2025,12:07:28.22,-57.13,982.91,-274.41,4.76,4.21,8.07,26.10,60.75,19.05,34.64,10.0,
07/02/2025,12:07:28.32,-27.83,926.27,-265.63,0.05,3.76,-6.41,25.20,60.45,19.20,34.55,10.0,
07/02/2025,12:07:28.42,-28.81,929.69,-270.02,3.46,-1.87,0.77,25.65,61.05,16.95,34.64,10.0,
07/02/2025,12:07:28.52,-16.11,938.48,-285.64,-1.89,1.29,1.71,24.90,60.75,17.55,34.69,10.0,
07/02/2025,12:07:28.62,-11.23,931.64,-291.02,1.34,2.84,0.33,25.65,60.30,17.25,34.64,10.0,
07/02/2025,12:07:28.72,-14.16,924.32,-290.53,0.20,0.37,1.30,24.90,58.80,17.25,34.83,10.0,
07/02/2025,12:07:28.82,-37.11,935.55,-286.62,-0.04,3.52,-2.56,25.80,62.70,17.10,34.88,10.0,
07/02/2025,12:07:28.92,-21.97,932.62,-279.79,-3.58,1.40,-0.99,27.30,60.15,16.35,34.83,10.0,
07/02/2025,12:07:29.02,-10.25,941.89,-275.88,0.27,-2.60,0.39,25.65,60.75,17.25,34.50,10.0,
07/02/2025,12:07:29.12,-18.07,946.29,-290.53,-2.46,2.61,-2.70,25.65,61.50,18.75,34.64,9.992,
07/02/2025,12:07:29.22,-24.90,941.41,-282.71,-2.06,4.10,1.49,25.80,60.45,17.40,34.83,9.992,
07/02/2025,12:07:29.32,-25.39,931.15,-275.39,-2.50,-0.99,0.29,25.80,60.90,16.35,34.69,9.992,
07/02/2025,12:07:29.43,-18.55,943.85,-292.48,-2.77,2.77,0.60,24.15,59.85,16.50,34.74,9.992,
07/02/2025,12:07:29.53,-38.09,953.61,-280.27,2.38,2.0,2.03,25.80,61.20,16.65,34.64,9.993,
07/02/2025,12:07:29.63,-4.39,932.13,-276.37,-2.28,-0.02,0.80,25.65,60.30,18.0,34.64,9.993,
07/02/2025,12:07:29.73,-25.39,930.66,-284.67,-5.21,6.93,-2.32,25.50,61.20,17.10,34.55,9.993,
07/02/2025,12:07:29.83,-31.74,945.80,-282.23,1.95,0.60,2.24,24.75,60.90,18.15,34.40,9.993,
07/02/2025,12:07:29.93,-14.16,932.62,-282.23,0.01,-3.98,0.64,24.75,60.15,17.40,34.40,9.993,
07/02/2025,12:07:30.03,-27.83,930.66,-281.74,-2.11,0.89,0.06,26.25,61.20,17.10,34.74,9.993,
07/02/2025,12:07:30.13,-1.95,938.96,-277.83,-0.07,-2.69,1.76,25.50,58.65,17.40,34.69,9.993,
07/02/2025,12:07:30.23,-14.16,947.27,-275.39,-0.90,2.15,-2.27,24.75,60.15,17.40,34.55,9.993,
07/02/2025,12:07:30.33,-9.77,932.13,-281.74,-0.52,1.01,-0.14,25.50,60.90,18.15,34.64,9.986,
07/02/2025,12:07:30.43,-11.72,927.73,-289.55,2.40,-1.66,-0.83,23.70,61.20,16.65,34.64,9.986,
07/02/2025,12:07:30.53,-12.70,937.99,-312.99,7.61,7.84,-4.03,26.25,60.45,15.30,34.88,9.986,
07/02/2025,12:07:30.64,-32.71,923.34,-299.80,6.66,4.39,-4.53,26.10,61.50,15.75,34.64,9.986,
07/02/2025,12:07:30.74,-53.22,896.48,-318.36,10.44,-2.57,2.78,25.80,61.65,13.50,34.64,9.986,
07/02/2025,12:07:30.84,-70.31,922.85,-342.77,11.15,-1.06,-6.95,26.25,61.95,13.50,34.64,9.986,
07/02/2025,12:07:30.94,-32.23,931.64,-313.48,10.95,-24.23,-3.12,26.10,62.55,13.65,34.74,9.987,
07/02/2025,12:07:31.04,-99.12,919.43,-401.86,28.85,-62.42,10.33,26.40,61.80,12.90,34.64,9.987,
07/02/2025,12:07:31.14,-99.12,848.63,-476.07,24.06,-28.50,0.76,24.0,63.15,12.0,34.50,9.987,
07/02/2025,12:07:31.24,-22.46,841.80,-489.26,7.60,-0.10,-6.0,24.45,62.70,9.45,34.88,9.987,
07/02/2025,12:07:31.34,-128.91,870.61,-464.84,6.63,3.84,-1.34,23.70,61.95,11.25,34.64,9.987,
07/02/2025,12:07:31.44,-111.82,859.86,-487.30,-5.26,7.20,-3.63,26.55,62.70,9.90,34.93,9.987,
07/02/2025,12:07:31.54,-110.84,842.29,-480.47,-4.31,2.71,0.87,25.65,62.55,9.60,34.83,9.981,
07/02/2025,12:07:31.64,-121.58,860.84,-473.63,-8.01,0.21,6.29,24.75,62.40,10.50,34.50,9.981,
07/02/2025,12:07:31.74,-106.93,854.00,-469.24,-9.83,2.01,4.38,25.35,63.30,10.35,34.64,9.981,
07/02/2025,12:07:31.85,-110.84,860.84,-453.61,-7.57,0.23,-0.65,24.75,62.40,12.0,34.31,9.981,
07/02/2025,12:07:31.95,-80.08,880.37,-432.62,-10.63,1.67,1.11,24.15,63.0,12.60,34.40,9.981,
07/02/2025,12:07:32.05,-71.78,875.0,-411.13,-10.06,7.78,-0.82,26.10,62.55,11.85,34.64,9.981,
07/02/2025,12:07:32.15,-87.89,916.02,-416.50,-15.68,5.44,-0.09,24.60,63.30,15.45,34.74,9.981,
07/02/2025,12:07:32.25,-90.33,887.21,-356.93,-16.66,7.48,4.21,24.60,61.80,15.45,34.64,9.981,
07/02/2025,12:07:32.35,-55.18,874.51,-354.00,-10.94,6.31,3.59,24.0,61.65,13.80,34.50,9.982,
07/02/2025,12:07:32.45,-52.73,922.36,-352.54,-7.81,8.67,0.87,23.55,62.25,16.20,34.64,9.982,
07/02/2025,12:07:32.55,-24.90,919.92,-322.75,-9.58,12.46,-0.65,23.85,62.55,16.20,34.50,9.982,
07/02/2025,12:07:32.65,-70.80,912.11,-294.43,-9.36,14.67,-9.45,24.60,61.05,17.55,34.64,9.982,
07/02/2025,12:07:32.75,-102.54,954.10,-274.41,-5.09,-3.21,-4.12,26.10,59.85,17.55,34.50,9.976,
07/02/2025,12:07:32.85,-40.53,957.52,-289.55,-17.43,2.24,-6.44,26.40,60.75,17.25,34.40,9.976,
07/02/2025,12:07:32.95,-62.50,946.78,-226.07,-13.73,0.09,2.83,27.90,60.30,19.05,34.64,9.976,
07/02/2025,12:07:33.06,-109.38,941.89,-247.56,0.16,-1.38,-3.34,27.0,59.40,20.25,34.64,9.976,
07/02/2025,12:07:33.16,-81.54,929.20,-223.63,3.76,-7.76,5.39,27.15,60.30,18.75,34.64,9.977,
07/02/2025,12:07:33.26,-73.73,954.10,-258.30,3.0,-7.15,-0.44,25.50,61.65,18.15,34.36,9.977,
07/02/2025,12:07:33.36,-51.76,943.36,-248.05,0.11,-5.05,3.72,26.55,60.15,20.25,34.36,9.977,
07/02/2025,12:07:33.46,-91.80,932.62,-260.74,2.66,0.18,0.69,25.80,60.90,18.45,34.50,9.977,
07/02/2025,12:07:33.56,-82.03,940.43,-280.27,4.73,3.51,6.06,23.85,60.30,19.05,34.50,9.977,
07/02/2025,12:07:33.66,-66.89,930.66,-270.51,2.10,2.82,-2.15,24.0,61.95,17.40,34.55,9.977,
07/02/2025,12:07:33.76,-63.96,935.55,-275.39,1.31,6.73,2.39,23.70,60.45,17.85,34.64,9.977,
07/02/2025,12:07:33.86,-65.43,934.08,-284.67,2.89,2.09,3.15,25.50,60.15,16.35,34.64,9.977,
07/02/2025,12:07:33.96,-55.18,923.34,-291.99,2.57,8.40,2.55,25.65,59.85,18.0,34.40,9.978,
07/02/2025,12:07:34.06,-63.48,928.71,-294.43,4.50,3.11,3.92,24.45,61.65,16.35,34.31,9.972,
07/02/2025,12:07:34.16,-49.80,925.29,-310.06,0.08,-0.14,1.76,24.60,62.25,16.20,34.74,9.972,
07/02/2025,12:07:34.26,-52.25,927.25,-312.50,-2.61,-0.03,0.22,24.75,62.40,16.05,34.83,9.972,
07/02/2025,12:07:34.37,-34.18,923.83,-321.29,1.73,1.78,4.28,23.70,62.40,15.30,34.69,9.973,
07/02/2025,12:07:34.47,-55.66,922.36,-322.27,-2.91,-1.19,-1.37,23.85,63.30,15.45,34.74,9.973,
07/02/2025,12:07:34.57,-33.20,917.48,-331.05,-2.47,-0.92,-1.03,24.75,61.65,16.35,34.64,9.973,
07/02/2025,12:07:34.67,-37.11,905.76,-317.87,1.08,1.40,4.14,24.45,61.65,14.85,34.40,9.973,
07/02/2025,12:07:34.77,-31.25,907.23,-333.98,0.50,-0.40,0.45,23.85,61.50,15.45,34.50,9.973,
07/02/2025,12:07:34.87,-37.60,899.41,-326.66,0.05,0.06,1.50,25.20,60.90,16.05,34.55,9.973,
07/02/2025,12:07:34.97,-32.71,910.64,-326.66,3.30,-1.11,2.94,24.15,62.25,15.45,34.64,9.973,
07/02/2025,12:07:35.07,-25.39,905.27,-340.82,0.11,-0.71,-1.43,24.60,63.75,15.45,34.64,9.974,
07/02/2025,12:07:35.17,-34.18,903.81,-335.94,1.73,-0.16,1.31,23.70,63.15,16.35,34.50,9.974,
07/02/2025,12:07:35.27,-35.64,931.64,-327.64,-3.81,4.56,-1.82,23.70,61.20,16.05,34.64,9.969,
07/02/2025,12:07:35.37,-48.83,920.41,-331.54,-0.89,-0.31,-0.02,24.45,62.70,13.80,34.36,9.969,
07/02/2025,12:07:35.47,-43.46,915.04,-339.84,0.45,0.15,2.10,25.20,62.40,14.85,34.55,9.969,
07/02/2025,12:07:35.58,-47.36,919.92,-344.73,-0.92,0.94,-0.67,23.55,61.50,14.70,34.40,9.969,
07/02/2025,12:07:35.68,-47.36,923.34,-343.75,-0.48,0.63,3.37,22.80,62.55,15.15,34.69,9.969,
07/02/2025,12:07:35.78,-47.85,912.60,-348.63,0.75,-0.89,0.93,23.70,62.40,14.85,34.74,9.969,
07/02/2025,12:07:35.88,-45.90,915.04,-346.68,-3.09,2.38,-0.84,25.65,60.75,16.95,34.64,9.970,
07/02/2025,12:07:35.98,-34.67,913.57,-349.12,0.80,-2.23,3.06,23.10,63.0,15.45,34.40,9.970,
07/02/2025,12:07:36.08,-44.92,907.71,-343.75,-0.47,1.02,-1.24,24.90,62.55,16.20,34.36,9.970,
07/02/2025,12:07:36.18,-48.83,920.90,-327.64,-3.49,3.58,-1.14,23.70,60.45,14.25,34.64,9.970,
07/02/2025,12:07:36.28,-45.90,923.83,-344.24,-2.63,1.68,-0.05,24.15,61.50,15.15,34.64,9.970,
07/02/2025,12:07:36.38,-45.41,918.95,-340.33,-3.02,3.07,-2.56,23.55,61.80,15.75,34.50,9.970,
07/02/2025,12:07:36.48,-36.62,903.81,-330.57,-1.04,1.89,-0.95,24.60,61.05,16.20,34.64,9.971,
07/02/2025,12:07:36.58,-51.76,918.95,-334.47,-0.34,-0.92,0.95,24.60,61.05,15.75,34.74,9.966,
07/02/2025,12:07:36.68,-43.46,921.88,-345.70,-0.72,5.21,-2.20,23.70,61.95,13.80,34.40,9.966,
07/02/2025,12:07:36.79,-37.11,921.88,-341.80,-1.98,-0.98,-0.79,24.15,63.30,13.35,34.69,9.966,
07/02/2025,12:07:36.89,-39.06,904.79,-336.43,1.51,1.24,1.06,23.55,62.55,15.15,34.64,9.966,
07/02/2025,12:07:36.99,-41.99,904.79,-342.29,1.53,2.01,0.68,23.85,61.05,15.45,34.64,9.966,
07/02/2025,12:07:37.09,-41.50,910.64,-341.80,1.91,-0.30,2.40,24.75,61.95,15.60,34.69,9.967,
07/02/2025,12:07:37.19,-27.83,909.18,-348.63,-3.27,0.84,0.97,24.60,61.50,15.45,34.36,9.967,
07/02/2025,12:07:37.29,-42.97,916.50,-346.68,-0.05,0.43,-0.14,24.15,61.80,13.95,34.50,9.967,
07/02/2025,12:07:37.39,-54.20,915.53,-340.33,-0.05,-1.30,2.39,24.75,62.70,15.30,34.40,9.967,
07/02/2025,12:07:37.49,-48.83,926.76,-337.40,-5.28,-0.19,1.36,23.55,61.80,14.40,34.64,9.967,
07/02/2025,12:07:37.59,-59.57,930.66,-334.47,-4.03,-4.08,2.37,23.55,61.05,16.95,34.55,9.967,
07/02/2025,12:07:37.69,-38.09,927.25,-319.34,-8.11,-2.82,1.89,23.85,63.30,15.45,34.69,9.968,
07/02/2025,12:07:37.79,-64.94,923.34,-312.01,-2.15,-6.21,-0.18,22.20,61.65,16.35,34.64,9.963,
07/02/2025,12:07:37.89,-22.95,919.92,-322.75,0.27,-7.91,7.0,21.75,63.15,17.10,34.64,9.963,
07/02/2025,12:07:37.99,-26.86,921.88,-322.27,1.54,-4.54,1.92,22.20,61.95,16.65,34.40,9.963,
07/02/2025,12:07:38.10,-14.65,926.27,-317.38,3.20,-2.23,2.79,22.05,62.25,18.0,34.69,9.964,
07/02/2025,12:07:38.20,-24.41,919.43,-337.89,-2.06,-0.58,-0.80,20.70,61.95,17.85,34.55,9.964,
07/02/2025,12:07:38.30,-8.79,908.69,-310.06,-4.81,-1.85,-1.71,22.05,63.0,16.20,34.50,9.964,
07/02/2025,12:07:38.40,-2.44,911.13,-317.87,-1.80,0.56,1.60,21.30,62.55,17.25,34.50,9.964,
07/02/2025,12:07:38.50,-16.60,954.59,-329.10,-7.14,3.08,-0.15,21.30,63.0,16.20,34.50,9.964,
07/02/2025,12:07:38.60,-36.62,938.96,-271.00,-15.59,-1.34,-8.13,23.10,63.0,17.25,34.31,9.964,
07/02/2025,12:07:38.70,-17.58,901.86,-276.86,-2.41,1.0,-2.27,22.50,60.45,18.45,34.40,9.965,
07/02/2025,12:07:38.80,-58.59,903.32,-267.09,-2.66,5.75,-4.28,23.55,61.05,18.30,34.64,9.965,
07/02/2025,12:07:38.90,-40.53,924.32,-291.50,2.24,1.95,3.63,23.85,62.55,18.30,34.64,9.965,
07/02/2025,12:07:39.00,-56.64,924.80,-299.32,4.79,-4.11,-0.89,22.50,62.40,18.15,34.50,9.961,
07/02/2025,12:07:39.10,-38.57,956.54,-282.23,-0.28,-5.94,2.38,22.80,62.25,18.0,34.83,9.961,
07/02/2025,12:07:39.20,-30.27,919.92,-287.60,4.87,1.88,2.69,23.55,62.25,19.05,34.64,9.961,
07/02/2025,12:07:39.31,-59.08,943.36,-303.22,6.06,3.22,0.21,23.85,62.55,18.0,34.50,9.961,
07/02/2025,12:07:39.41,-22.95,929.69,-326.17,-0.23,3.27,3.69,21.75,63.45,16.35,34.74,9.961,
07/02/2025,12:07:39.51,-37.60,938.96,-331.54,0.50,4.26,3.13,22.50,61.65,16.35,34.31,9.962,
07/02/2025,12:07:39.61,-67.87,913.57,-303.22,-3.69,6.22,-3.05,24.0,61.65,18.45,34.40,9.962,
07/02/2025,12:07:39.71,-62.99,903.81,-308.59,1.05,1.04,1.65,22.80,61.80,18.0,34.64,9.962,
07/02/2025,12:07:39.81,-53.71,942.87,-302.73,-0.27,-1.20,-1.89,21.60,61.50,18.0,34.64,9.962,
07/02/2025,12:07:39.91,-33.20,908.20,-336.43,5.33,-1.25,1.19,22.50,61.95,17.10,34.50,9.962,
07/02/2025,12:07:40.01,-24.90,943.36,-324.22,2.89,-3.85,1.87,22.35,62.55,16.95,34.50,9.962,
07/02/2025,12:07:40.11,-57.13,915.04,-316.41,-6.25,2.06,-0.02,22.50,63.45,16.05,34.40,9.962,
07/02/2025,12:07:40.21,-55.18,909.67,-318.36,2.29,2.22,0.48,22.80,63.0,17.25,34.50,9.959,
07/02/2025,12:07:40.31,-41.99,910.16,-336.91,1.79,0.42,2.69,22.95,60.90,17.85,34.55,9.959,
07/02/2025,12:07:40.41,-54.20,907.71,-331.54,-1.40,-0.93,0.02,22.95,62.40,16.65,34.69,9.959,
07/02/2025,12:07:40.52,-39.55,919.92,-338.87,1.15,-3.06,0.63,22.50,61.65,17.40,34.64,9.959,
07/02/2025,12:07:40.62,-62.99,921.39,-349.61,-4.35,-2.53,-0.59,23.70,62.40,16.05,34.40,9.959,
07/02/2025,12:07:40.72,-37.11,910.16,-344.73,-0.23,-4.54,4.45,22.95,61.95,15.30,34.69,9.959,
07/02/2025,12:07:40.82,-52.25,933.11,-333.98,3.32,-0.96,1.07,22.35,63.75,15.45,34.40,9.960,
07/02/2025,12:07:40.92,-35.16,920.90,-329.10,-4.93,2.49,-1.95,22.95,62.40,16.35,34.50,9.960,
07/02/2025,12:07:41.02,-31.74,918.95,-323.73,-0.50,1.73,4.19,23.10,60.75,16.50,34.40,9.960,
07/02/2025,12:07:41.12,-63.96,910.16,-330.08,-1.55,1.64,-2.94,21.30,62.25,16.50,34.50,9.960,
07/02/2025,12:07:41.22,-21.00,921.88,-319.82,2.37,0.08,4.44,23.70,62.70,16.65,34.36,9.960,
07/02/2025,12:07:41.32,-35.64,940.92,-330.57,2.89,0.60,3.83,23.55,63.30,14.40,34.21,9.960,
07/02/2025,12:07:41.42,-51.27,909.18,-325.68,-2.93,-2.89,-3.08,22.80,62.25,16.50,34.64,9.960,
07/02/2025,12:07:41.52,-23.44,904.30,-337.40,0.89,2.62,1.25,21.30,62.25,16.50,34.50,9.957,
07/02/2025,12:07:41.62,-45.90,906.25,-335.45,-1.38,4.82,-2.02,22.05,63.30,15.45,34.64,9.957,
07/02/2025,12:07:41.73,-43.95,919.92,-341.80,1.92,-0.54,-0.37,22.35,61.80,16.50,34.64,9.957,
07/02/2025,12:07:41.83,-54.69,901.86,-334.47,0.21,0.30,1.04,23.25,61.65,15.60,34.69,9.957,
07/02/2025,12:07:41.93,-63.96,913.09,-338.87,-4.44,1.56,-3.71,22.80,62.55,15.45,34.50,9.957,
07/02/2025,12:07:42.03,-40.53,920.41,-329.59,-2.63,-1.79,3.11,23.55,63.30,15.75,34.64,9.958,
07/02/2025,12:07:42.13,-53.71,921.88,-336.91,-2.02,3.08,-0.04,22.80,61.50,14.70,34.50,9.958,
07/02/2025,12:07:42.23,-39.06,915.53,-323.73,-3.0,-0.13,-0.64,22.95,61.95,17.85,34.55,9.958,
07/02/2025,12:07:42.33,-44.43,930.18,-329.59,-1.08,4.39,0.08,22.35,61.80,16.95,34.64,9.958,
07/02/2025,12:07:42.43,-51.27,920.90,-337.40,-2.29,0.66,3.58,23.70,63.45,17.40,34.64,9.958,
07/02/2025,12:07:42.53,-36.13,921.39,-328.13,1.37,-2.47,0.73,22.35,61.80,16.95,34.40,9.958,
07/02/2025,12:07:42.63,-33.20,908.69,-332.03,-4.22,4.80,-0.92,22.50,62.40,17.40,34.31,9.959,
07/02/2025,12:07:42.73,-38.09,918.95,-322.27,-1.12,4.47,-1.02,22.35,61.80,15.75,34.74,9.955,
07/02/2025,12:07:42.83,-56.64,937.99,-327.64,0.24,-0.66,-1.37,22.95,61.20,14.85,34.74,9.955,
07/02/2025,12:07:42.93,-59.57,931.64,-312.50,-9.99,-0.34,-3.68,22.50,63.45,17.10,34.55,9.955,
07/02/2025,12:07:43.04,-25.88,910.64,-298.83,-1.05,-1.77,3.21,22.80,63.0,17.55,34.64,9.955,
07/02/2025,12:07:43.14,-48.34,926.76,-317.38,-1.77,6.52,-5.53,23.85,62.55,18.0,34.74,9.956,
07/02/2025,12:07:43.24,-43.46,917.97,-294.43,-0.97,2.85,-1.82,23.25,61.65,18.45,34.50,9.956,
07/02/2025,12:07:43.34,-47.36,931.15,-298.34,-0.57,-1.69,1.69,24.0,62.40,18.15,34.64,9.956,
07/02/2025,12:07:43.44,-35.64,920.90,-310.06,-3.53,0.87,-2.24,22.05,62.25,18.30,34.64,9.956,
07/02/2025,12:07:43.54,-33.20,921.88,-310.06,-0.50,-2.12,1.60,23.10,61.80,16.95,34.55,9.956,
07/02/2025,12:07:43.64,-30.76,921.88,-300.29,-0.34,1.92,3.04,22.20,62.40,18.15,34.64,9.956,
07/02/2025,12:07:43.74,-46.88,928.22,-304.20,-5.21,1.32,0.11,22.05,62.25,18.0,34.69,9.957,
07/02/2025,12:07:43.84,-42.48,923.34,-305.18,-0.66,-3.60,3.29,20.70,60.90,19.20,34.40,9.957,
07/02/2025,12:07:43.94,-42.97,926.76,-295.41,-1.72,1.06,2.85,22.95,61.65,18.15,34.55,9.953,
07/02/2025,12:07:44.04,-39.06,924.32,-305.18,-1.93,2.91,-2.11,22.35,63.0,18.30,34.40,9.953,
07/02/2025,12:07:44.14,-21.97,945.80,-314.94,-0.65,1.61,3.34,21.75,63.15,16.65,34.55,9.954,
07/02/2025,12:07:44.25,-48.34,947.27,-296.39,-5.07,2.43,0.48,22.80,61.80,17.25,34.74,9.954,
07/02/2025,12:07:44.35,-41.50,929.20,-293.46,0.38,-0.49,2.37,22.05,62.55,17.55,34.55,9.954,
07/02/2025,12:07:44.45,-47.36,922.85,-301.27,-3.53,-2.27,0.23,22.50,63.90,17.10,34.64,9.954,
07/02/2025,12:07:44.55,-61.04,942.38,-279.30,0.53,-2.34,-0.15,22.35,63.30,19.05,34.64,9.954,
07/02/2025,12:07:44.65,-14.16,936.52,-294.92,-0.39,-3.41,1.02,21.30,62.25,19.05,34.74,9.954,
07/02/2025,12:07:44.75,-50.78,921.88,-311.04,-0.50,6.08,-2.27,22.05,61.80,16.95,34.55,9.955,
07/02/2025,12:07:44.85,-43.95,968.26,-296.39,1.20,4.25,-0.44,23.25,61.95,18.90,34.64,9.955,
07/02/2025,12:07:44.95,-39.06,925.78,-311.04,-0.79,-0.34,5.88,22.50,61.95,17.40,34.64,9.955,
07/02/2025,12:07:45.05,-27.34,926.27,-312.99,1.06,1.0,3.39,21.60,61.50,17.25,34.69,9.955,
07/02/2025,12:07:45.15,-29.79,929.69,-310.55,2.05,-1.55,1.52,21.60,62.55,17.25,34.31,9.955,
07/02/2025,12:07:45.25,-38.09,921.39,-304.69,1.76,0.70,-0.63,21.45,62.40,17.40,34.40,9.952,
07/02/2025,12:07:45.35,-33.69,921.88,-304.20,-1.50,-0.28,0.93,23.10,61.05,16.20,34.64,9.952,
07/02/2025,12:07:45.46,-38.09,928.22,-316.89,2.05,-3.72,3.22,23.10,63.0,17.25,34.64,9.952,
07/02/2025,12:07:45.56,-19.04,934.57,-305.66,-0.34,3.22,0.57,20.55,60.30,16.95,34.50,9.952,
07/02/2025,12:07:45.66,-34.18,915.04,-317.87,-1.40,-2.19,0.72,22.95,61.95,17.85,34.50,9.953,
07/02/2025,12:07:45.76,-30.76,923.34,-318.36,1.04,-3.18,-0.28,22.80,62.25,15.75,34.50,9.953,
07/02/2025,12:07:45.86,-40.04,913.57,-312.50,-3.53,3.45,-1.48,21.75,63.45,17.85,34.40,9.953,
07/02/2025,12:07:45.96,-37.60,926.76,-314.94,1.30,-5.29,1.81,21.45,61.20,17.10,34.64,9.953,
07/02/2025,12:07:46.06,-34.18,931.64,-321.78,-1.18,1.29,-0.72,22.35,61.05,18.30,34.74,9.953,
07/02/2025,12:07:46.16,-36.13,916.02,-316.41,0.30,1.09,0.56,21.75,62.70,17.40,34.50,9.953,
07/02/2025,12:07:46.26,-34.18,911.13,-321.78,-0.53,2.40,-0.98,21.60,62.25,18.0,34.40,9.954,
07/02/2025,12:07:46.36,-41.02,927.25,-314.45,-4.18,2.24,0.22,22.20,62.40,17.10,34.40,9.954,
07/02/2025,12:07:46.46,-42.48,917.48,-320.80,-1.60,0.39,1.38,21.75,62.40,16.35,34.50,9.951,
07/02/2025,12:07:46.56,-31.25,936.52,-314.94,-1.83,0.96,-1.58,22.05,63.75,17.25,34.40,9.951,
07/02/2025,12:07:46.66,-23.44,936.04,-307.13,-0.12,-1.10,0.58,22.05,61.50,16.95,34.55,9.951,
07/02/2025,12:07:46.77,-22.46,924.80,-315.92,-1.41,0.92,0.97,22.35,62.55,17.25,34.55,9.951,
07/02/2025,12:07:46.87,-36.13,924.80,-313.96,-2.31,-1.02,-1.95,21.45,62.70,17.85,34.64,9.951,
07/02/2025,12:07:46.97,-45.41,932.13,-297.85,-0.34,-3.44,4.11,22.05,61.80,17.55,34.50,9.951,
07/02/2025,12:07:47.07,-37.60,937.99,-288.09,-3.36,3.68,-1.75,20.85,61.50,18.30,34.50,9.952,
07/02/2025,12:07:47.17,-52.25,935.06,-300.78,-1.87,1.08,0.99,21.60,61.05,18.30,34.40,9.952,
07/02/2025,12:07:47.27,-41.99,929.20,-307.62,1.34,1.21,2.25,22.20,62.40,17.85,34.74,9.952,
07/02/2025,12:07:47.37,-27.83,912.60,-298.83,-0.49,2.26,-0.82,22.95,60.90,18.15,34.64,9.952,
07/02/2025,12:07:47.47,-38.09,937.50,-306.15,1.19,1.62,2.02,22.05,62.55,17.55,34.40,9.952,
07/02/2025,12:07:47.57,-54.69,937.50,-306.64,-1.77,1.31,-1.92,22.20,63.45,17.85,34.64,9.952,
07/02/2025,12:07:47.67,-40.53,914.55,-307.13,-1.87,4.06,-1.23,23.25,61.95,18.15,34.64,9.949,
07/02/2025,12:07:47.77,-29.30,921.39,-307.62,0.34,-2.46,2.16,23.10,63.0,16.95,34.36,9.949,
07/02/2025,12:07:47.87,-36.62,924.32,-301.76,-3.06,1.68,-4.69,22.35,61.05,17.25,34.64,9.950,
07/02/2025,12:07:47.98,-33.69,940.92,-315.43,-0.41,1.27,2.92,22.80,61.05,18.0,34.55,9.950,
07/02/2025,12:07:48.08,-29.79,923.83,-309.08,-1.66,1.56,-0.11,23.55,61.50,16.95,34.64,9.950,
07/02/2025,12:07:48.18,-19.53,931.64,-295.90,-2.21,2.23,-1.80,21.30,63.30,18.75,34.55,9.950,
07/02/2025,12:07:48.28,-28.81,924.32,-306.15,-1.50,-1.76,3.53,21.30,61.50,18.30,34.40,9.950,
07/02/2025,12:07:48.38,-44.43,944.82,-307.62,-0.88,2.35,-0.69,22.20,62.70,18.45,34.40,9.950,
07/02/2025,12:07:48.48,-41.50,923.34,-308.11,0.11,0.76,1.79,22.35,63.30,16.95,34.40,9.951,
07/02/2025,12:07:48.58,-21.00,925.78,-306.64,-0.76,1.44,0.37,20.85,62.25,17.55,34.64,9.951,
07/02/2025,12:07:48.68,-29.30,937.50,-315.92,-1.72,0.99,-1.45,23.55,63.75,17.25,34.69,9.951,
07/02/2025,12:07:48.78,-23.44,933.11,-322.27,0.38,-0.32,2.66,22.20,61.20,17.10,34.50,9.951,
07/02/2025,12:07:48.88,-26.86,922.85,-315.43,-1.79,0.82,-2.25,21.60,63.0,18.30,34.64,9.951,
07/02/2025,12:07:48.98,-30.76,930.66,-310.55,0.69,-0.67,-1.53,21.15,63.15,18.15,34.40,9.948,
07/02/2025,12:07:49.08,-34.18,918.46,-309.57,-1.26,-3.09,1.54,22.20,61.95,17.85,34.40,9.948,
07/02/2025,12:07:49.19,-48.83,925.78,-311.52,-2.48,2.13,-0.96,22.80,61.80,17.25,34.31,9.949,
07/02/2025,12:07:49.29,-24.41,926.27,-296.88,-2.49,-0.73,2.28,22.80,60.75,19.05,34.69,9.949,
07/02/2025,12:07:49.39,-27.34,930.18,-305.66,-4.34,2.24,-1.43,22.80,63.30,18.30,34.69,9.949,
07/02/2025,12:07:49.49,-41.02,928.71,-298.34,-2.74,-0.14,1.27,22.20,60.45,17.40,34.64,9.949,
07/02/2025,12:07:49.59,-29.30,919.92,-299.32,0.23,-4.53,1.39,21.60,61.80,19.05,34.69,9.949,
07/02/2025,12:07:49.69,-33.20,948.24,-298.83,0.03,1.02,-0.32,22.50,62.40,17.85,34.36,9.949,
07/02/2025,12:07:49.79,-34.67,922.36,-299.80,-0.14,2.49,2.50,21.75,63.15,17.10,34.40,9.950,
07/02/2025,12:07:49.89,-41.99,909.18,-309.08,0.36,3.46,-1.75,21.15,61.95,18.15,34.40,9.950,
07/02/2025,12:07:49.99,-26.86,928.22,-316.41,1.43,0.27,3.05,22.50,60.45,16.35,34.74,9.950,
07/02/2025,12:07:50.09,-45.90,929.69,-316.89,-2.20,-1.53,0.69,21.45,63.15,17.85,34.50,9.950,
07/02/2025,12:07:50.19,-39.06,921.88,-320.31,-0.32,3.88,-2.23,23.55,63.75,18.0,34.55,9.947,
07/02/2025,12:07:50.29,-29.79,922.36,-309.08,0.21,1.27,2.05,22.05,63.0,17.25,34.40,9.947,
07/02/2025,12:07:50.39,-45.41,929.69,-310.55,-1.90,3.66,-1.28,21.60,62.55,18.0,34.50,9.947,
07/02/2025,12:07:50.50,-42.48,932.13,-318.85,0.66,-2.90,0.15,22.05,61.80,18.30,34.55,9.948,
07/02/2025,12:07:50.60,-30.76,918.95,-313.48,-2.27,2.22,-1.60,22.20,62.70,18.15,34.36,9.948,
07/02/2025,12:07:50.70,-38.57,920.41,-303.22,-1.23,5.17,1.59,22.80,61.50,17.55,34.50,9.948,
07/02/2025,12:07:50.80,-29.79,923.83,-313.96,2.40,-1.08,3.98,22.50,63.15,16.35,34.64,9.948,
07/02/2025,12:07:50.90,-34.18,920.41,-313.48,-1.42,-2.79,1.94,22.50,63.15,17.40,34.12,9.948,
07/02/2025,12:07:51.00,-24.90,933.11,-320.31,2.40,3.47,1.01,23.10,62.25,16.50,34.50,9.948,
07/02/2025,12:07:51.10,-43.46,906.25,-314.94,-2.37,0.15,-3.47,22.05,61.80,18.30,34.64,9.949,
07/02/2025,12:07:51.20,-30.27,918.46,-321.29,-1.32,1.20,-1.44,21.45,61.95,16.65,34.40,9.949,
07/02/2025,12:07:51.30,-35.64,910.64,-320.31,3.60,-0.08,-0.33,23.10,62.25,17.25,34.50,9.949,
07/02/2025,12:07:51.40,-25.88,923.34,-322.27,3.82,3.91,1.24,22.05,62.55,16.50,34.40,9.949,
07/02/2025,12:07:51.50,-41.50,914.55,-326.66,0.56,0.13,-1.79,22.95,63.15,17.40,34.40,9.946,
07/02/2025,12:07:51.60,-22.46,908.69,-319.82,1.11,2.62,-2.43,22.35,62.55,14.70,34.36,9.946,
07/02/2025,12:07:51.71,-32.23,903.81,-318.36,1.36,0.97,-0.42,22.50,62.40,15.60,34.64,9.947,
07/02/2025,12:07:51.81,-35.64,916.99,-324.71,1.0,0.49,1.20,22.35,61.80,16.20,34.83,9.947,
07/02/2025,12:07:51.91,-41.99,918.95,-325.68,-0.18,-0.05,-1.76,20.85,62.25,16.20,34.64,9.947,
07/02/2025,12:07:52.01,-32.23,918.46,-339.84,-0.92,-1.90,0.18,22.20,62.40,16.05,34.64,9.947,
07/02/2025,12:07:52.11,-42.97,923.83,-332.03,-0.13,3.41,-1.79,21.60,62.25,15.45,34.50,9.947,
07/02/2025,12:07:52.21,-41.50,919.92,-337.40,-2.52,1.05,0.30,22.80,61.50,16.50,34.40,9.947,
07/02/2025,12:07:52.31,-38.57,921.88,-344.24,-1.94,-2.07,-0.18,20.70,63.15,15.60,34.31,9.947,
07/02/2025,12:07:52.41,-33.20,917.48,-344.73,-2.75,2.16,-0.74,22.50,61.95,17.85,34.50,9.948,
07/02/2025,12:07:52.51,-36.62,914.55,-333.98,0.73,-1.76,1.94,20.70,62.40,16.65,34.40,9.948,
07/02/2025,12:07:52.61,-37.11,920.90,-334.96,-2.40,3.06,1.24,22.95,61.95,17.40,34.64,9.948,
07/02/2025,12:07:52.71,-40.53,905.27,-335.94,-2.63,3.24,-1.76,22.50,62.70,15.60,34.50,9.945,
07/02/2025,12:07:52.81,-36.62,924.32,-326.17,1.24,1.47,2.95,21.45,61.95,16.65,34.50,9.946,
07/02/2025,12:07:52.92,-33.69,918.46,-321.29,-3.76,0.79,-3.40,21.45,61.65,17.10,34.40,9.946,
07/02/2025,12:07:53.02,-29.30,905.76,-332.03,0.73,-1.40,0.30,21.60,63.75,16.50,34.64,9.946,
07/02/2025,12:07:53.12,-32.71,916.99,-341.80,0.80,1.88,2.88,20.85,61.80,17.55,34.55,9.946,
07/02/2025,12:07:53.22,-32.71,903.81,-337.40,-2.23,1.70,-1.35,21.60,63.30,15.75,34.64,9.946,
07/02/2025,12:07:53.32,-26.86,914.55,-348.63,1.03,1.78,1.44,22.95,64.35,15.60,34.50,9.946,
07/02/2025,12:07:53.42,-28.32,915.53,-350.10,-4.06,2.82,-4.82,22.05,61.80,15.75,34.40,9.946,
07/02/2025,12:07:53.52,-27.83,913.09,-347.17,2.08,2.11,2.22,21.60,61.05,16.95,34.64,9.947,
07/02/2025,12:07:53.62,-35.16,916.50,-335.45,-4.21,-1.24,-0.45,22.50,62.70,16.05,34.55,9.947,
07/02/2025,12:07:53.72,-42.97,915.53,-332.03,-3.92,1.71,-0.53,21.75,62.70,16.35,34.64,9.947,
07/02/2025,12:07:53.82,-27.83,915.53,-334.96,0.18,-2.42,2.45,22.20,61.95,17.40,34.64,9.947,
07/02/2025,12:07:53.92,-42.48,915.53,-319.82,-3.70,1.62,0.44,22.80,62.55,17.25,34.50,9.944,
07/02/2025,12:07:54.02,-36.13,915.53,-325.20,-1.15,-2.52,3.11,22.50,62.55,18.0,34.40,9.945,
07/02/2025,12:07:54.12,-29.30,919.92,-329.10,-1.49,0.65,0.43,22.95,62.40,14.85,34.69,9.945,
07/02/2025,12:07:54.23,-46.88,921.88,-333.98,0.44,2.04,0.95,22.80,62.25,18.0,34.36,9.945,
07/02/2025,12:07:54.33,-24.90,927.73,-332.03,-0.32,-1.27,2.03,22.50,62.70,15.60,34.50,9.945,
07/02/2025,12:07:54.43,-43.95,907.23,-326.17,-2.17,1.64,-1.24,22.20,62.70,17.10,34.40,9.945,
07/02/2025,12:07:54.53,-41.02,930.66,-324.22,0.56,-2.70,3.77,22.05,62.25,16.95,34.50,9.945,
07/02/2025,12:07:54.63,-49.80,923.34,-327.15,-2.34,2.25,2.08,22.05,62.55,16.20,34.31,9.945,
07/02/2025,12:07:54.73,-39.06,935.55,-313.96,-6.52,-3.62,-0.02,22.05,63.0,16.20,34.40,9.946,
07/02/2025,12:07:54.83,-32.71,907.71,-306.64,-4.66,4.37,-1.97,22.05,61.50,16.20,34.31,9.946,
07/02/2025,12:07:54.93,-50.78,923.83,-313.96,-3.19,4.41,-3.44,22.20,61.65,16.65,34.64,9.946,
07/02/2025,12:07:55.03,-44.92,935.55,-319.34,3.75,0.68,3.21,22.35,61.80,17.25,34.64,9.946,
07/02/2025,12:07:55.13,-30.27,928.22,-319.82,-3.29,-2.78,-1.03,22.50,61.95,16.65,34.55,9.946,
07/02/2025,12:07:55.23,-46.39,910.64,-303.71,0.49,-0.64,-0.11,20.85,62.25,16.20,34.40,9.944,
07/02/2025,12:07:55.33,-38.57,935.55,-318.36,-0.63,2.82,0.14,23.10,63.30,17.25,34.40,9.944,
07/02/2025,12:07:55.44,-35.64,926.76,-317.38,-0.31,2.11,0.76,21.30,63.75,16.95,34.64,9.944,
07/02/2025,12:07:55.54,-34.67,925.29,-305.66,-4.03,3.38,-1.99,22.20,61.65,16.35,34.40,9.944,
07/02/2025,12:07:55.64,-34.18,917.97,-328.13,-2.59,2.16,0.79,22.35,61.80,16.20,34.40,9.944,
07/02/2025,12:07:55.74,-30.27,916.02,-315.43,0.57,0.43,1.29,22.50,63.15,18.45,34.64,9.944,
07/02/2025,12:07:55.84,-43.46,920.90,-316.41,-3.30,3.74,-1.45,24.45,62.70,16.65,34.40,9.945,
07/02/2025,12:07:55.94,-42.48,914.55,-334.47,0.71,-3.14,3.0,22.50,61.65,17.85,34.64,9.945,
07/02/2025,12:07:56.04,-34.18,926.27,-312.99,-1.39,5.68,-0.05,21.75,62.40,17.10,34.55,9.945,
07/02/2025,12:07:56.14,-32.23,913.57,-305.66,0.42,2.83,-1.72,22.80,61.05,16.95,34.50,9.945,
07/02/2025,12:07:56.24,-41.99,932.13,-318.85,3.04,-2.56,6.24,22.80,62.25,17.55,34.50,9.945,
07/02/2025,12:07:56.34,-26.37,933.59,-336.43,-0.23,-0.14,-3.69,21.30,61.50,16.95,34.50,9.945,
07/02/2025,12:07:56.44,-19.04,901.37,-315.43,-0.37,3.0,1.95,22.50,62.70,16.65,34.31,9.943,
07/02/2025,12:07:56.54,-42.48,915.04,-319.82,-1.40,4.45,-4.69,21.15,62.70,16.35,34.50,9.943,
07/02/2025,12:07:56.64,-21.00,920.90,-325.68,-0.13,0.58,1.79,22.50,63.15,17.85,34.64,9.943,
07/02/2025,12:07:56.75,-34.18,937.01,-325.68,-1.83,-0.05,-1.13,21.45,62.40,16.05,34.40,9.943,
07/02/2025,12:07:56.85,-38.09,910.64,-323.24,-0.85,4.35,1.94,22.50,61.95,16.35,34.55,9.944,
07/02/2025,12:07:56.95,-38.57,923.34,-326.17,-0.37,-0.51,2.63,22.35,61.80,16.95,34.64,9.944,
07/02/2025,12:07:57.05,-24.90,925.78,-321.29,-4.63,5.35,-2.18,21.75,62.70,15.30,34.64,9.944,
07/02/2025,12:07:57.15,-39.55,926.76,-328.13,-0.10,0.44,0.69,21.60,63.0,16.20,34.50,9.944,
07/02/2025,12:07:57.25,-39.55,926.76,-334.47,-3.45,0.43,-0.68,22.35,61.50,17.55,34.40,9.944,
07/02/2025,12:07:57.35,-32.23,918.46,-321.78,-0.79,0.97,1.95,21.75,62.40,16.35,34.64,9.944,
07/02/2025,12:07:57.45,-40.04,930.66,-327.15,-3.08,2.56,-2.21,22.20,62.40,16.35,34.50,9.944,
07/02/2025,12:07:57.55,-32.23,916.02,-333.01,-3.43,0.26,0.41,21.60,62.25,16.95,34.74,9.944,
07/02/2025,12:07:57.65,-31.25,924.80,-316.89,-0.70,0.31,4.43,21.45,61.65,16.35,34.55,9.945,
07/02/2025,12:07:57.75,-55.66,928.71,-315.92,-3.83,2.78,-0.28,20.55,63.0,16.20,34.50,9.942,
07/02/2025,12:07:57.85,-40.04,927.25,-330.57,1.88,0.52,1.84,20.85,62.25,15.75,34.69,9.943,
07/02/2025,12:07:57.96,-36.13,918.95,-324.71,-3.32,1.17,-1.01,20.85,61.50,16.20,34.40,9.943,
07/02/2025,12:07:58.06,-26.37,919.43,-318.36,0.28,3.36,0.99,22.80,61.80,18.0,34.50,9.943,
07/02/2025,12:07:58.16,-49.32,920.41,-315.92,-2.37,3.18,-1.77,22.35,62.55,16.50,34.40,9.943,
07/02/2025,12:07:58.26,-22.95,925.78,-323.24,-3.79,1.68,1.17,21.45,61.95,16.65,34.12,9.943,
07/02/2025,12:07:58.36,-28.32,934.57,-311.52,0.03,2.38,-0.20,23.10,63.0,16.50,34.50,9.943,
07/02/2025,12:07:58.46,-47.85,921.39,-315.43,-1.60,2.31,3.08,22.20,62.70,17.10,34.50,9.943,
07/02/2025,12:07:58.56,-29.79,930.18,-301.76,-4.80,-1.11,0.82,23.70,62.70,17.85,34.36,9.943,
07/02/2025,12:07:58.66,-21.48,907.23,-289.55,-7.96,1.94,-0.56,20.85,62.25,18.0,34.40,9.944,
07/02/2025,12:07:58.76,-58.59,942.87,-302.25,-1.09,1.37,-0.22,21.75,62.40,17.85,34.31,9.944,
07/02/2025,12:07:58.86,-20.02,907.23,-299.32,1.40,0.85,1.83,22.20,61.50,19.35,34.50,9.944,
07/02/2025,12:07:58.96,-48.83,915.53,-310.06,1.62,0.42,-1.32,21.45,61.95,16.35,34.40,9.942,
07/02/2025,12:07:59.06,0.49,932.62,-309.57,2.34,-1.60,3.29,22.20,61.95,17.40,34.55,9.942,
07/02/2025,12:07:59.16,-30.76,937.01,-304.20,-1.18,4.05,-1.52,21.30,61.80,16.95,34.64,9.942,
07/02/2025,12:07:59.27,-31.74,925.78,-309.57,-1.21,1.71,0.61,21.75,60.90,17.85,34.69,9.942,
07/02/2025,12:07:59.37,-28.32,937.50,-312.01,-2.36,3.83,-1.72,20.70,61.65,17.85,34.31,9.942,
07/02/2025,12:07:59.47,-39.55,918.95,-312.99,2.61,-0.09,3.18,21.60,62.55,18.0,34.40,9.942,
07/02/2025,12:07:59.57,-33.69,929.69,-327.15,1.31,-0.94,0.89,21.30,62.55,16.95,34.55,9.942,
07/02/2025,12:07:59.67,-14.16,925.78,-332.52,-0.68,6.34,-2.77,21.60,64.05,17.55,34.55,9.943,
07/02/2025,12:07:59.77,-19.04,931.15,-315.43,0.18,-1.94,-0.34,22.35,62.55,17.25,34.55,9.943,
07/02/2025,12:07:59.87,-41.99,929.69,-316.41,-1.41,-3.87,-4.15,22.20,61.20,17.85,34.64,9.943,
07/02/2025,12:07:59.97,-45.41,917.48,-302.25,0.51,-2.16,1.19,22.95,62.40,16.35,34.31,9.943,
07/02/2025,12:08:00.07,-30.27,926.76,-322.27,-0.16,0.67,-1.80,22.05,62.55,18.0,34.40,9.943,
07/02/2025,12:08:00.17,-46.88,900.88,-336.43,0.41,0.18,2.14,21.30,63.30,17.55,34.55,9.943,
07/02/2025,12:08:00.27,-2.44,930.66,-307.62,-3.99,6.54,1.10,21.45,62.40,15.60,34.69,9.941,
07/02/2025,12:08:00.37,-36.62,916.02,-306.64,-2.10,3.25,-4.57,21.15,62.70,17.40,34.40,9.941,
07/02/2025,12:08:00.48,-16.11,925.29,-325.68,-0.07,3.01,2.31,21.75,63.15,18.15,34.64,9.941,
07/02/2025,12:08:00.58,-42.48,924.32,-328.13,2.20,3.27,-2.27,22.50,63.45,16.65,34.50,9.942,
07/02/2025,12:08:00.68,-23.44,907.23,-312.01,1.92,1.44,-0.02,21.45,61.65,17.85,34.55,9.942,
07/02/2025,12:08:00.78,-34.18,924.80,-328.61,1.83,-1.74,0.05,22.20,61.65,17.10,34.40,9.942,
07/02/2025,12:08:00.88,-11.23,907.23,-324.22,-2.40,1.09,2.73,22.20,62.40,16.65,34.64,9.942,
07/02/2025,12:08:00.98,-29.30,931.64,-329.59,-2.81,2.05,-0.87,23.85,63.0,16.95,34.50,9.942,
07/02/2025,12:08:01.08,-18.55,924.80,-348.63,-1.95,-2.41,-1.68,22.20,63.15,16.05,34.50,9.942,
07/02/2025,12:08:01.18,-26.37,918.95,-319.82,2.07,-0.73,0.19,20.70,62.70,16.35,34.40,9.942,
07/02/2025,12:08:01.28,-43.95,930.18,-324.71,-4.13,2.27,-3.96,20.40,63.15,17.40,34.64,9.942,
07/02/2025,12:08:01.38,-4.88,922.36,-322.27,-3.08,1.31,2.95,23.25,63.45,16.05,34.64,9.943,
07/02/2025,12:08:01.48,-34.67,906.25,-312.01,-3.62,1.73,-1.77,22.50,63.15,17.40,34.50,9.940,
07/02/2025,12:08:01.58,-56.15,936.52,-331.05,-1.82,-1.34,0.35,22.95,62.40,15.30,34.64,9.941,
07/02/2025,12:08:01.68,-9.77,915.04,-301.76,-0.22,0.42,-1.67,22.50,60.90,18.90,34.36,9.941,
07/02/2025,12:08:01.79,-30.27,917.48,-320.31,-3.82,2.95,0.64,22.35,61.80,16.50,34.36,9.941,
07/02/2025,12:08:01.89,-30.76,940.92,-303.71,-0.01,-1.18,-3.58,23.55,61.80,16.95,34.55,9.941,
07/02/2025,12:08:01.99,-19.53,925.29,-314.45,-2.12,1.57,2.41,22.50,63.15,16.35,34.40,9.941,
07/02/2025,12:08:02.09,-44.43,921.88,-301.76,3.09,-0.67,0.66,21.60,61.50,17.55,34.64,9.941,
07/02/2025,12:08:02.19,-26.37,923.83,-306.64,-0.49,-3.31,2.37,22.50,61.95,17.10,34.31,9.941,
07/02/2025,12:08:02.29,-37.11,918.46,-322.75,2.50,-9.02,2.53,22.95,63.90,17.10,34.31,9.942,
07/02/2025,12:08:02.39,-36.13,917.48,-325.68,3.33,-9.64,2.42,21.15,62.40,16.35,34.21,9.942,
07/02/2025,12:08:02.49,-44.43,921.39,-325.68,-0.89,-5.46,-1.61,21.75,62.40,16.65,34.36,9.942,
07/02/2025,12:08:02.59,-39.06,912.11,-328.61,2.73,-8.15,1.05,19.20,61.95,16.05,34.64,9.942,
07/02/2025,12:08:02.69,-31.74,918.95,-354.98,3.55,1.38,-1.60,20.70,63.15,16.35,34.40,9.942,
07/02/2025,12:08:02.79,-6.84,924.32,-335.94,5.17,-3.19,4.19,21.60,61.80,17.25,34.40,9.940,
07/02/2025,12:08:02.89,-42.97,913.09,-346.19,2.11,0.95,-1.0,19.80,62.55,16.95,34.40,9.940,
07/02/2025,12:08:03.00,-29.79,912.60,-352.54,-0.16,-0.67,2.88,19.95,62.40,16.35,34.50,9.940,
07/02/2025,12:08:03.10,-47.85,909.18,-346.68,-2.26,3.17,0.41,22.35,63.75,15.45,34.55,9.940,
07/02/2025,12:08:03.20,-56.64,897.46,-356.93,2.15,-0.64,1.42,19.05,62.25,15.15,34.40,9.941,
07/02/2025,12:08:03.30,-62.01,919.43,-353.52,0.07,1.36,1.66,21.15,62.70,16.05,34.64,9.941,
07/02/2025,12:08:03.40,-18.07,895.02,-377.93,-0.73,4.79,1.76,21.30,63.0,15.15,34.55,9.941,
07/02/2025,12:08:03.50,-55.18,894.04,-330.08,0.72,-1.83,2.65,19.65,61.95,16.05,34.21,9.941,
07/02/2025,12:08:03.60,-31.74,924.80,-355.96,0.14,5.41,-1.38,20.40,63.90,17.10,34.55,9.941,
07/02/2025,12:08:03.70,-23.93,923.34,-335.45,-7.24,-1.18,3.45,20.10,64.05,16.50,34.50,9.941,
07/02/2025,12:08:03.80,-48.34,917.48,-340.82,-6.06,11.94,-5.11,20.55,61.80,17.25,34.69,9.941,
07/02/2025,12:08:03.90,-87.89,891.60,-331.05,-5.59,-3.63,-0.06,20.55,62.25,18.75,34.40,9.941,
07/02/2025,12:08:04.00,23.93,911.62,-312.01,1.93,1.31,-0.72,20.85,63.75,16.95,34.50,9.939,
07/02/2025,12:08:04.10,-63.96,935.55,-333.01,1.23,1.38,-0.73,21.45,61.95,18.45,34.31,9.940,
07/02/2025,12:08:04.20,-49.80,917.97,-325.20,0.83,5.92,0.21,21.45,63.90,18.90,34.21,9.940,
07/02/2025,12:08:04.31,-96.19,918.95,-292.97,-7.76,-1.48,2.68,20.40,62.70,18.15,34.50,9.940,
07/02/2025,12:08:04.41,-6.35,881.84,-350.10,3.59,-10.23,-1.95,20.10,61.50,17.55,34.64,9.940,
07/02/2025,12:08:04.51,0.49,882.32,-295.41,0.88,0.40,6.88,20.40,62.70,17.10,34.40,9.940,
07/02/2025,12:08:04.61,-19.04,883.79,-400.88,15.60,-3.66,-0.82,21.30,62.25,16.95,34.55,9.940,
07/02/2025,12:08:04.71,-36.13,896.48,-348.63,3.34,1.63,-4.95,20.40,64.65,16.65,34.21,9.940,
07/02/2025,12:08:04.81,-36.13,894.04,-326.17,-2.08,2.19,-0.44,18.30,63.30,16.95,34.50,9.940,
07/02/2025,12:08:04.91,-35.16,913.09,-355.47,-0.68,-1.15,6.79,21.75,62.40,16.05,34.64,9.941,
07/02/2025,12:08:05.01,-90.82,860.35,-381.35,0.73,-0.18,-5.21,20.40,62.40,15.60,34.64,9.941,
07/02/2025,12:08:05.11,-6.35,898.44,-349.61,0.80,1.76,-0.80,21.30,64.50,15.15,34.69,9.941,
07/02/2025,12:08:05.21,-24.41,902.83,-360.84,3.80,0.75,2.78,19.65,62.70,14.55,34.64,9.939,
07/02/2025,12:08:05.31,-26.37,900.39,-344.24,-6.73,0.63,-2.98,20.85,63.30,15.15,34.31,9.939,
07/02/2025,12:08:05.41,-54.20,903.81,-379.39,0.76,-2.28,0.21,20.10,61.80,15.15,34.50,9.939,
07/02/2025,12:08:05.52,-37.11,909.67,-367.68,-2.99,-0.15,0.37,19.95,64.65,16.65,34.36,9.939,
07/02/2025,12:08:05.62,-68.85,903.81,-388.67,2.69,0.02,0.55,21.15,64.65,16.05,34.55,9.939,
07/02/2025,12:08:05.72,-10.25,906.25,-361.33,-5.50,0.11,2.88,21.75,63.45,14.25,34.64,9.940,
07/02/2025,12:08:05.82,-69.82,898.93,-383.30,4.94,5.38,0.71,19.80,62.55,15.45,34.31,9.940,
07/02/2025,12:08:05.92,-28.32,906.25,-341.31,-6.57,5.52,-1.83,18.90,61.20,15.30,34.40,9.940,
07/02/2025,12:08:06.02,-53.71,907.23,-383.79,-0.98,-1.37,3.56,18.75,62.55,15.45,34.21,9.940,
07/02/2025,12:08:06.12,-36.62,915.53,-339.84,-4.61,1.89,-2.42,19.65,63.15,16.65,34.40,9.940,
07/02/2025,12:08:06.22,-33.20,908.20,-390.63,3.52,-3.73,5.23,19.80,63.75,15.45,34.40,9.940,
07/02/2025,12:08:06.32,-34.18,915.53,-354.49,-1.69,4.34,-2.77,20.40,62.40,15.60,34.31,9.940,
07/02/2025,12:08:06.42,-27.83,889.16,-383.79,-2.29,0.44,3.17,21.60,61.80,15.75,34.36,9.940,
07/02/2025,12:08:06.52,-40.53,908.20,-337.40,-4.30,1.53,-2.81,21.45,65.10,14.55,34.21,9.939,
07/02/2025,12:08:06.62,-30.76,912.11,-389.65,5.09,-0.86,3.56,20.40,65.10,14.55,34.50,9.939,
07/02/2025,12:08:06.73,-45.90,915.53,-345.70,-3.79,0.96,-2.45,20.55,63.30,15.75,34.64,9.939,
07/02/2025,12:08:06.83,-41.50,896.00,-383.30,1.89,-1.55,6.20,21.15,64.35,16.35,34.69,9.939,
07/02/2025,12:08:06.93,-55.66,915.53,-350.10,-0.01,2.05,-2.44,19.95,61.65,15.30,34.50,9.939,
07/02/2025,12:08:07.03,-42.97,888.18,-375.49,-2.99,4.74,1.34,20.70,61.95,16.05,34.50,9.939,
07/02/2025,12:08:07.13,-30.27,901.86,-371.58,1.33,-0.44,0.37,20.70,63.45,16.05,34.21,9.939,
07/02/2025,12:08:07.23,-39.06,905.27,-351.07,-3.08,2.47,-1.69,21.60,63.30,15.45,34.50,9.939,
07/02/2025,12:08:07.33,-53.22,909.67,-357.91,0.08,-2.79,1.60,19.65,61.95,15.30,34.40,9.939,
07/02/2025,12:08:07.43,-35.64,904.79,-363.28,-3.27,2.80,-0.95,20.10,63.0,15.45,34.50,9.940,
07/02/2025,12:08:07.53,-39.55,907.23,-363.28,-2.69,1.60,-1.75,21.60,63.30,15.75,34.40,9.940,
07/02/2025,12:08:07.63,-20.51,904.30,-343.26,-0.19,0.63,1.21,19.95,62.70,16.05,34.64,9.940,
07/02/2025,12:08:07.73,-38.09,907.71,-348.63,-3.49,1.15,-2.09,21.15,64.65,14.25,34.50,9.938,
07/02/2025,12:08:07.83,-43.95,901.86,-367.68,2.35,1.34,0.0,22.05,65.25,14.70,34.36,9.938,
07/02/2025,12:08:07.93,-37.11,913.09,-361.33,-0.52,2.44,-1.46,20.85,63.30,16.50,34.55,9.938,
07/02/2025,12:08:08.04,-41.99,910.16,-361.82,1.21,-0.02,0.92,19.95,63.15,16.65,34.31,9.938,
07/02/2025,12:08:08.14,-46.39,907.23,-365.72,-1.09,-0.91,-1.65,20.70,63.15,16.35,34.40,9.938,
07/02/2025,12:08:08.24,-38.57,900.88,-359.86,0.56,0.27,1.60,19.80,63.30,15.45,34.31,9.939,
07/02/2025,12:08:08.34,-37.11,911.13,-362.30,-1.45,-1.14,-0.42,20.40,63.15,15.60,34.36,9.939,
07/02/2025,12:08:08.44,-40.04,912.60,-351.56,-3.98,1.63,-2.31,20.40,63.90,16.35,34.40,9.939,
07/02/2025,12:08:08.54,-37.11,907.23,-364.26,0.56,-0.47,-0.98,20.40,62.70,14.55,34.50,9.939,
07/02/2025,12:08:08.64,-48.83,908.69,-358.89,-3.34,-1.37,0.97,20.70,61.65,14.25,34.31,9.939,
07/02/2025,12:08:08.74,-44.92,900.39,-357.91,0.35,-2.01,-0.08,20.40,63.15,16.05,34.40,9.939,
07/02/2025,12:08:08.84,-52.73,916.50,-361.33,-0.72,1.14,-2.47,19.95,61.95,16.35,34.31,9.939,
07/02/2025,12:08:08.94,-30.76,900.39,-353.52,1.36,-1.77,0.63,20.40,63.15,15.30,34.69,9.939,
07/02/2025,12:08:09.04,-54.20,900.39,-359.38,-1.02,0.34,-1.30,19.80,63.0,15.75,34.74,9.938,
07/02/2025,12:08:09.14,-30.76,906.74,-358.89,-0.37,2.98,1.69,21.30,63.30,15.45,34.50,9.938,
07/02/2025,12:08:09.25,-23.93,908.69,-360.35,-0.46,1.73,3.21,20.70,64.65,15.30,34.64,9.938,
07/02/2025,12:08:09.35,-37.60,904.79,-352.05,-2.50,3.97,-0.31,20.40,63.45,16.05,34.55,9.938,
07/02/2025,12:08:09.45,-33.69,907.71,-359.38,0.40,0.66,-0.22,20.85,63.0,14.40,34.21,9.938,
07/02/2025,12:08:09.55,-34.67,912.11,-351.56,1.84,3.33,-1.55,20.10,62.55,15.75,34.50,9.938,
07/02/2025,12:08:09.65,-37.11,908.20,-360.84,0.89,1.47,-0.01,20.40,63.45,16.05,34.36,9.938,
07/02/2025,12:08:09.75,-37.11,909.18,-352.54,-1.32,2.82,-1.75,19.50,60.30,15.45,34.40,9.938,
07/02/2025,12:08:09.85,-35.64,909.18,-369.63,-1.27,2.49,1.92,22.20,64.35,16.35,34.40,9.939,
07/02/2025,12:08:09.95,-32.71,915.04,-350.59,-3.18,4.72,-3.30,21.45,64.65,14.55,34.31,9.939,
07/02/2025,12:08:10.05,-47.85,901.86,-360.84,-3.50,4.33,-0.95,21.30,63.0,16.20,34.12,9.939,
07/02/2025,12:08:10.15,-37.60,902.83,-355.96,-0.98,-0.47,3.64,20.55,63.0,15.15,34.31,9.939,
07/02/2025,12:08:10.25,-31.25,906.25,-342.77,-3.50,1.36,0.95,19.80,63.0,16.20,34.50,9.937,
07/02/2025,12:08:10.35,-44.92,904.79,-344.24,-0.75,2.25,0.67,20.55,62.55,16.50,34.64,9.937,
07/02/2025,12:08:10.45,-40.04,908.69,-357.42,-4.14,-0.82,-1.83,19.20,63.15,16.65,34.50,9.937,
07/02/2025,12:08:10.56,-34.67,908.69,-344.73,-1.04,-1.01,3.04,20.55,63.75,16.50,34.31,9.938,
07/02/2025,12:08:10.66,-50.29,914.06,-343.75,-3.50,2.10,-3.46,20.70,62.70,16.65,34.50,9.938,
07/02/2025,12:08:10.76,-21.48,929.20,-347.66,-0.73,-0.66,4.42,21.60,63.0,16.20,34.40,9.938,
07/02/2025,12:08:10.86,-26.37,913.57,-342.77,-3.23,-2.63,-0.21,22.05,62.55,15.75,34.40,9.938,
07/02/2025,12:08:10.96,-31.25,914.06,-334.47,-4.07,3.40,-1.44,20.40,62.40,16.35,34.50,9.938,
07/02/2025,12:08:11.06,-36.62,919.43,-325.20,-4.98,1.0,1.08,19.65,62.70,16.65,34.55,9.938,
07/02/2025,12:08:11.16,-29.79,907.23,-312.99,-3.26,1.59,-2.43,20.10,61.50,17.55,34.21,9.938,
07/02/2025,12:08:11.26,-53.71,913.09,-330.08,0.02,-0.23,5.09,21.15,62.40,19.65,34.31,9.938,
07/02/2025,12:08:11.36,-10.74,899.90,-324.71,-1.66,0.34,-1.43,20.10,62.55,16.95,34.50,9.938,
07/02/2025,12:08:11.46,-46.39,949.71,-332.03,2.19,0.02,2.20,20.55,61.80,16.50,34.50,9.939,
07/02/2025,12:08:11.56,-35.16,927.25,-312.01,0.60,2.98,1.13,20.40,63.45,17.40,34.40,9.937,
07/02/2025,12:08:11.66,-34.67,923.83,-330.08,-0.79,2.31,-1.18,20.85,61.80,18.0,34.40,9.937,
07/02/2025,12:08:11.76,-43.95,908.20,-338.87,1.53,-0.47,4.78,22.80,62.55,16.20,34.50,9.937,
07/02/2025,12:08:11.87,-34.67,923.34,-314.94,0.57,1.98,-3.37,20.40,63.15,17.10,34.55,9.937,
07/02/2025,12:08:11.97,-35.64,921.39,-337.89,1.04,0.92,-0.05,19.95,62.40,17.40,34.40,9.937,
07/02/2025,12:08:12.07,-21.97,907.23,-324.71,-3.30,5.79,-0.79,20.55,63.30,17.25,34.64,9.937,
07/02/2025,12:08:12.17,-42.97,911.13,-331.05,0.95,0.21,0.09,20.10,63.75,16.95,34.50,9.938,
07/02/2025,12:08:12.27,-39.55,926.76,-340.82,-3.44,1.94,-3.57,21.30,64.05,17.55,34.12,9.938,
07/02/2025,12:08:12.37,-33.69,916.02,-333.01,0.17,-3.15,1.66,21.45,62.70,15.60,34.16,9.938,
07/02/2025,12:08:12.47,-32.71,916.99,-335.45,-0.79,-0.44,1.09,20.55,61.80,17.55,34.40,9.938,
07/02/2025,12:08:12.57,-26.37,921.88,-332.52,-3.55,2.41,-1.65,19.50,63.0,17.25,34.50,9.938,
07/02/2025,12:08:12.67,-47.85,913.57,-330.08,2.10,-1.11,1.21,20.40,63.15,17.40,34.31,9.938,
07/02/2025,12:08:12.77,-39.55,926.76,-319.82,-3.36,0.51,-3.25,21.15,63.45,16.65,34.40,9.936,
07/02/2025,12:08:12.87,-30.27,915.53,-325.20,-1.17,-3.69,1.53,20.70,62.40,17.40,34.16,9.937,
07/02/2025,12:08:12.97,-54.20,913.09,-333.98,-1.90,0.40,-2.73,21.15,63.45,17.10,34.36,9.937,
07/02/2025,12:08:13.08,-24.41,914.55,-326.66,-0.20,-0.42,1.85,20.10,61.80,16.20,34.55,9.937,
07/02/2025,12:08:13.18,-42.97,920.41,-336.91,-1.61,0.30,-2.51,21.30,63.75,16.50,34.64,9.937,
07/02/2025,12:08:13.28,-21.97,931.64,-311.52,0.0,3.30,-1.24,21.30,61.80,16.50,34.40,9.937,
07/02/2025,12:08:13.38,-49.80,916.02,-331.54,-3.26,3.11,2.43,19.65,62.70,17.10,34.21,9.937,
07/02/2025,12:08:13.48,-68.36,920.90,-333.50,0.30,-1.92,3.47,19.80,62.25,17.55,34.31,9.937,
07/02/2025,12:08:13.58,-29.79,926.76,-315.92,0.14,2.69,-1.33,19.80,63.0,18.0,34.50,9.937,
07/02/2025,12:08:13.68,-32.23,902.34,-342.29,-1.79,2.17,-1.15,22.20,63.15,17.85,34.50,9.937,
07/02/2025,12:08:13.78,-46.88,937.99,-330.08,0.36,-3.73,-0.25,21.30,64.05,17.55,34.64,9.938,
07/02/2025,12:08:13.88,-37.11,930.66,-326.17,-2.54,4.27,-1.86,20.85,61.50,16.20,34.36,9.938,
07/02/2025,12:08:13.98,-41.99,916.50,-329.10,-0.58,-1.38,5.10,21.60,63.75,15.75,34.31,9.938,
07/02/2025,12:08:14.08,-40.04,937.99,-331.54,-0.92,2.77,-4.74,19.95,63.90,18.45,34.40,9.936,
07/02/2025,12:08:14.18,-29.30,907.23,-334.47,0.69,-0.09,1.50,21.60,62.25,15.45,34.55,9.936,
07/02/2025,12:08:14.28,-32.23,909.67,-336.43,-2.04,0.95,-0.40,21.15,62.40,18.45,34.40,9.936,
07/02/2025,12:08:14.39,-30.76,912.11,-324.71,0.41,-4.09,-0.35,21.30,63.0,18.30,34.50,9.937,
07/02/2025,12:08:14.49,-29.30,925.29,-332.52,-0.77,0.40,-0.22,20.85,62.25,16.95,34.40,9.937,
07/02/2025,12:08:14.59,-36.62,912.60,-331.54,-1.20,1.14,-2.48,20.40,63.90,16.05,34.40,9.937,
07/02/2025,12:08:14.69,-32.23,924.32,-338.38,0.93,-2.15,0.95,21.45,63.45,17.40,34.55,9.937,
07/02/2025,12:08:14.79,-47.36,916.02,-326.66,-1.78,1.71,-0.74,20.85,63.0,16.20,34.50,9.937,
07/02/2025,12:08:14.89,-42.48,911.13,-336.91,0.98,-0.98,2.60,20.70,62.40,17.10,34.50,9.937,
07/02/2025,12:08:14.99,-32.71,918.46,-333.50,-2.37,-0.68,1.34,20.40,63.90,18.45,34.50,9.937,
07/02/2025,12:08:15.09,-45.41,932.13,-335.45,-2.03,-2.05,1.73,20.70,63.45,14.85,34.21,9.937,
07/02/2025,12:08:15.19,-37.11,925.78,-334.96,-1.40,1.24,-0.44,20.85,62.55,17.55,34.36,9.937,
07/02/2025,12:08:15.29,-38.09,916.02,-314.94,4.0,-1.34,1.66,19.95,63.15,16.65,34.69,9.936,
07/02/2025,12:08:15.39,-41.99,917.97,-333.50,-0.24,2.66,0.05,21.15,63.15,16.65,34.55,9.936,
07/02/2025,12:08:15.49,-23.44,899.90,-326.17,0.09,2.15,1.91,20.70,63.90,16.65,34.40,9.936,
07/02/2025,12:08:15.60,-36.13,921.39,-335.45,-1.50,2.15,-2.0,20.55,61.80,17.25,34.55,9.936,
07/02/2025,12:08:15.70,-42.97,923.34,-327.15,-1.82,1.31,-3.68,20.40,63.15,16.35,34.31,9.936,
07/02/2025,12:08:15.80,-43.46,905.76,-320.80,1.68,0.87,1.56,20.40,62.40,17.40,34.36,9.936,
07/02/2025,12:08:15.90,-12.70,932.62,-336.43,-3.70,1.95,-0.72,21.15,65.40,15.60,34.50,9.936,
07/02/2025,12:08:16.00,-47.85,912.11,-333.01,0.09,3.53,-0.80,22.20,62.70,16.65,34.40,9.937,
07/02/2025,12:08:16.10,-25.39,922.36,-333.50,-4.12,1.29,0.21,21.45,61.95,16.65,34.50,9.937,
07/02/2025,12:08:16.20,-28.32,925.29,-334.47,1.64,-1.49,3.79,20.70,63.45,17.10,34.21,9.937,
07/02/2025,12:08:16.30,-24.90,916.99,-333.50,-2.84,2.15,-2.29,21.45,61.95,18.15,34.31,9.937,
07/02/2025,12:08:16.40,-50.29,913.09,-333.98,-3.08,0.61,-0.02,20.10,62.25,18.0,34.40,9.937,
07/02/2025,12:08:16.50,-25.88,926.27,-316.89,-2.88,1.48,-0.05,21.15,62.40,18.15,34.31,9.935,
07/02/2025,12:08:16.60,-20.51,935.06,-334.47,-5.79,0.34,4.11,20.70,63.45,16.65,34.50,9.936,
07/02/2025,12:08:16.70,-32.71,899.41,-317.38,-1.98,4.95,-2.78,20.40,62.40,17.40,34.12,9.936,
07/02/2025,12:08:16.80,0.49,919.43,-330.08,-4.08,3.49,-0.66,20.70,63.45,17.40,34.36,9.936,
07/02/2025,12:08:16.91,-24.41,932.62,-312.50,-4.02,8.51,-7.30,20.40,63.45,16.35,34.36,9.936,
07/02/2025,12:08:17.01,-33.20,915.04,-312.01,-4.11,7.05,0.93,20.85,62.25,18.0,34.40,9.936,
07/02/2025,12:08:17.11,-77.64,928.71,-279.79,-0.01,2.84,-5.78,20.85,61.50,19.35,34.55,9.936,
07/02/2025,12:08:17.21,-37.11,954.59,-312.01,-3.62,2.77,-6.85,22.20,61.20,18.15,34.50,9.936,
07/02/2025,12:08:17.31,-55.18,903.32,-293.46,-3.34,-4.67,0.49,23.70,62.40,18.90,34.12,9.936,
07/02/2025,12:08:17.41,-32.23,916.02,-294.92,-3.59,-0.44,0.75,22.35,62.55,19.05,34.36,9.936,
07/02/2025,12:08:17.51,-47.85,926.76,-286.13,-5.44,-1.71,-0.52,22.20,62.70,18.15,34.40,9.936,
07/02/2025,12:08:17.61,-43.95,948.24,-291.99,-7.97,-0.05,4.66,23.70,61.95,19.65,34.31,9.937,
07/02/2025,12:08:17.71,-61.52,939.45,-277.83,-5.19,1.07,4.79,19.80,60.30,19.80,34.31,9.937,
07/02/2025,12:08:17.81,-32.23,945.80,-251.95,-2.24,5.28,0.29,22.20,61.20,19.20,34.21,9.935,
07/02/2025,12:08:17.91,-23.93,927.73,-254.39,-0.18,-0.12,-1.70,21.75,60.45,19.65,34.31,9.935,
07/02/2025,12:08:18.01,-27.83,929.69,-269.04,-1.76,0.80,-3.27,21.75,62.40,18.90,34.36,9.935,
07/02/2025,12:08:18.12,-35.16,930.18,-273.44,7.89,-0.08,-5.70,23.25,62.40,19.65,34.50,9.935,
07/02/2025,12:08:18.22,-67.38,918.46,-292.48,-0.09,1.03,-7.60,22.35,61.50,19.80,34.40,9.936,
07/02/2025,12:08:18.32,-50.29,928.71,-284.18,6.30,0.18,-3.08,25.35,61.05,19.80,34.12,9.936,
07/02/2025,12:08:18.42,-71.78,931.15,-309.57,1.57,6.37,-9.11,23.55,61.50,17.55,34.31,9.936,
07/02/2025,12:08:18.52,-104.00,940.92,-299.32,-0.44,0.27,-2.83,24.45,60.15,17.10,34.55,9.936,
07/02/2025,12:08:18.62,-110.84,914.06,-308.59,3.54,-7.98,-4.34,26.25,60.45,15.60,34.40,9.936,
07/02/2025,12:08:18.72,-94.24,926.76,-313.96,2.57,-6.56,-6.69,24.90,59.10,15.75,34.55,9.936,
07/02/2025,12:08:18.82,-133.30,919.43,-310.06,4.44,-9.33,-0.73,26.10,61.05,17.25,34.40,9.936,
07/02/2025,12:08:18.92,-117.19,877.93,-323.24,8.28,-0.85,-2.28,26.10,59.85,17.25,34.31,9.936,
07/02/2025,12:08:19.02,-131.35,916.02,-363.77,12.56,9.07,-10.24,25.65,61.05,17.55,34.31,9.936,
07/02/2025,12:08:19.12,-143.55,902.34,-377.44,-4.08,15.24,-8.86,26.25,60.45,16.05,34.50,9.935,
07/02/2025,12:08:19.22,-195.31,888.67,-358.40,0.95,8.55,-4.52,26.25,60.15,16.05,34.64,9.935,
07/02/2025,12:08:19.32,-138.18,892.58,-378.91,0.27,1.08,3.10,28.50,60.90,14.25,34.50,9.935,
07/02/2025,12:08:19.43,-140.14,885.74,-365.72,-0.49,-2.14,-0.49,27.45,61.50,12.90,34.36,9.935,
07/02/2025,12:08:19.53,-153.81,898.44,-369.63,4.98,-2.79,5.38,27.15,59.55,14.40,34.31,9.935,
07/02/2025,12:08:19.63,-129.39,900.39,-390.14,-0.94,5.57,-3.40,27.0,61.95,13.50,34.21,9.935,
07/02/2025,12:08:19.73,-139.16,890.63,-376.95,-1.99,2.58,2.66,26.55,60.90,14.25,34.50,9.936,
07/02/2025,12:08:19.83,-142.58,894.04,-387.70,-0.45,3.76,0.92,27.90,60.75,13.65,34.50,9.936,
07/02/2025,12:08:19.93,-124.02,885.25,-377.44,-6.15,0.80,2.89,26.40,60.75,15.15,34.40,9.936,
07/02/2025,12:08:20.03,-133.30,890.14,-370.12,-0.67,0.74,1.18,27.75,60.45,15.30,34.21,9.936,
07/02/2025,12:08:20.13,-128.42,889.65,-370.12,1.73,-3.47,4.54,25.50,61.20,14.55,34.64,9.936,
07/02/2025,12:08:20.23,-130.37,897.46,-378.91,-4.95,1.18,-2.72,27.30,60.15,14.25,34.50,9.936,
07/02/2025,12:08:20.33,-153.81,890.14,-365.23,-1.85,0.39,-3.18,26.10,59.55,13.95,34.36,9.935,
07/02/2025,12:08:20.43,-107.91,900.39,-362.30,2.32,-4.71,1.43,27.75,60.90,13.05,34.40,9.935,
07/02/2025,12:08:20.53,-128.91,906.74,-379.39,-2.11,-3.32,3.54,27.45,61.50,14.40,34.31,9.935,
07/02/2025,12:08:20.63,-118.16,882.32,-370.12,-3.17,5.43,0.12,26.25,61.20,16.35,34.36,9.935,
07/02/2025,12:08:20.74,-116.21,908.69,-384.28,-6.48,5.91,1.89,25.80,61.20,14.85,34.40,9.935,
07/02/2025,12:08:20.84,-158.20,885.74,-329.10,-10.55,11.38,-8.15,26.25,60.90,13.80,34.21,9.935,
07/02/2025,12:08:20.94,-92.77,917.48,-344.24,-2.88,3.18,5.82,27.90,60.75,15.75,34.31,9.935,
07/02/2025,12:08:21.04,-138.18,910.64,-333.01,-5.08,5.54,-8.50,27.30,59.70,16.05,34.31,9.935,
07/02/2025,12:08:21.14,-133.30,923.83,-309.08,-5.11,4.60,-1.47,27.75,59.40,15.60,34.21,9.935,
07/02/2025,12:08:21.24,-126.46,909.67,-320.80,0.59,-2.05,2.85,28.05,60.15,16.35,34.16,9.936,
07/02/2025,12:08:21.34,-120.12,905.27,-317.87,-2.21,-3.02,2.79,27.15,59.55,16.20,34.40,9.936,
07/02/2025,12:08:21.44,-110.84,916.99,-333.01,-4.95,-2.26,6.06,27.0,61.20,17.10,34.50,9.936,
07/02/2025,12:08:21.54,-102.54,926.27,-305.66,-5.93,0.78,-1.16,27.0,60.90,17.85,34.50,9.936,
07/02/2025,12:08:21.64,-102.54,919.43,-314.94,-4.34,2.11,4.38,24.60,60.75,18.30,34.02,9.934,
07/02/2025,12:08:21.74,-100.10,919.43,-311.04,-1.16,0.90,0.07,26.10,60.30,17.25,34.21,9.934,
07/02/2025,12:08:21.84,-92.29,930.66,-300.29,-0.40,1.50,4.27,27.75,60.90,16.05,34.40,9.935,
07/02/2025,12:08:21.95,-108.40,922.36,-316.89,-3.50,4.35,0.70,25.35,61.80,18.30,34.36,9.935,
07/02/2025,12:08:22.05,-99.12,922.36,-303.22,1.41,-3.52,2.91,25.35,59.85,18.0,34.31,9.935,
07/02/2025,12:08:22.15,-104.00,923.34,-292.48,-1.67,-1.58,-1.57,26.40,60.30,17.55,34.21,9.935,
07/02/2025,12:08:22.25,-85.45,927.25,-289.55,0.02,-0.81,0.21,26.40,59.85,17.25,34.50,9.935,
07/02/2025,12:08:22.35,-103.03,934.08,-308.11,-4.50,2.89,-2.61,25.20,60.45,16.65,34.40,9.935,
07/02/2025,12:08:22.45,-113.77,925.78,-306.64,2.48,-1.03,0.46,26.25,60.45,17.10,34.50,9.935,
07/02/2025,12:08:22.55,-88.38,919.92,-294.92,1.05,3.28,-1.21,25.65,61.05,16.95,34.31,9.935,
07/02/2025,12:08:22.65,-107.42,926.27,-310.55,2.86,0.60,0.21,26.55,60.45,17.40,34.16,9.935,
07/02/2025,12:08:22.75,-104.00,917.97,-307.13,-3.79,-0.18,-1.46,27.75,60.90,17.10,34.40,9.935,
07/02/2025,12:08:22.85,-113.77,923.34,-297.85,-0.88,-0.91,-0.98,25.20,59.40,18.90,34.31,9.936,
07/02/2025,12:08:22.95,-94.73,916.50,-310.06,-1.08,4.53,-0.99,26.10,59.85,16.20,34.36,9.934,
07/02/2025,12:08:23.05,-106.93,926.76,-312.01,0.12,0.03,2.43,24.75,59.70,17.85,34.21,9.934,
07/02/2025,12:08:23.15,-99.61,916.02,-312.01,-4.46,3.27,-3.24,27.45,61.05,18.0,34.21,9.934,
07/02/2025,12:08:23.26,-82.52,934.08,-314.45,0.02,-2.45,3.27,26.10,61.50,16.50,34.21,9.934,
07/02/2025,12:08:23.36,-92.29,911.13,-313.96,0.31,0.44,-1.03,26.40,59.55,14.70,34.40,9.935,
07/02/2025,12:08:23.46,-98.14,931.15,-318.85,-1.57,-1.73,3.08,27.30,60.15,16.05,34.55,9.935,
07/02/2025,12:08:23.56,-100.10,928.22,-312.99,-0.72,2.30,0.45,24.15,59.55,15.75,34.40,9.935,
07/02/2025,12:08:23.66,-83.50,930.66,-306.15,-1.01,-4.26,2.76,25.65,59.10,16.50,34.36,9.935,
07/02/2025,12:08:23.76,-91.31,932.62,-311.04,-2.24,0.85,-0.18,25.35,60.75,16.95,34.21,9.935,
07/02/2025,12:08:23.86,-86.43,923.83,-308.59,-3.67,0.67,-3.56,27.15,60.30,17.25,34.31,9.935,
07/02/2025,12:08:23.96,-95.21,926.27,-302.73,0.59,-1.67,-1.66,23.85,58.80,16.95,34.40,9.935,
07/02/2025,12:08:24.06,-101.56,915.53,-307.13,-4.28,3.73,-2.24,26.25,60.45,17.10,34.40,9.935,
07/02/2025,12:08:24.16,-97.17,921.88,-308.11,-1.18,0.15,1.47,24.60,60.75,15.75,34.31,9.934,
07/02/2025,12:08:24.26,-95.21,934.57,-302.25,-5.02,1.46,-0.48,24.90,60.75,16.50,34.16,9.934,
07/02/2025,12:08:24.36,-93.75,933.59,-302.25,-1.38,0.07,3.09,24.90,61.80,17.25,34.40,9.934,
07/02/2025,12:08:24.46,-71.78,923.34,-316.89,-3.05,-0.72,0.95,25.50,60.15,17.40,34.36,9.934,
07/02/2025,12:08:24.57,-124.02,1019.04,-298.83,-4.91,-5.31,6.74,24.45,59.70,18.15,34.40,9.934,
07/02/2025,12:08:24.67,-168.46,781.25,-202.64,2.21,-18.14,-14.38,26.25,60.15,18.45,34.31,9.934,
07/02/2025,12:08:24.77,62.01,984.86,-341.80,12.46,41.63,-7.98,26.40,61.80,13.95,34.16,9.934,
07/02/2025,12:08:24.87,-349.61,1257.32,-315.43,-65.37,-1.21,31.17,28.65,59.55,15.75,34.21,9.935,
07/02/2025,12:08:24.97,0.0,910.16,-172.85,13.0,-4.95,-5.35,27.30,60.15,17.10,34.36,9.935,
07/02/2025,12:08:25.07,-155.76,893.55,-299.32,4.90,-2.27,19.62,26.40,58.05,17.25,34.40,9.935,
07/02/2025,12:08:25.17,-95.70,927.73,-260.74,-0.71,-0.78,7.38,25.50,59.40,17.85,34.50,9.935,
07/02/2025,12:08:25.27,-83.01,933.11,-274.41,0.01,-7.07,-2.64,27.0,60.90,18.45,34.12,9.935,
07/02/2025,12:08:25.37,-72.27,944.82,-286.13,1.52,3.31,4.48,26.85,61.05,18.0,34.12,9.935,
07/02/2025,12:08:25.47,-59.57,918.95,-294.43,-4.54,7.30,-0.61,24.15,59.85,19.80,34.36,9.934,
07/02/2025,12:08:25.57,-91.80,943.85,-228.52,-13.15,-0.21,5.63,26.10,58.80,18.30,34.31,9.934,
07/02/2025,12:08:25.67,-58.11,971.19,-287.11,11.68,-0.69,1.14,24.60,59.85,18.75,34.40,9.934,
07/02/2025,12:08:25.78,-64.45,933.11,-238.77,-14.15,1.90,3.57,25.20,61.20,18.15,34.12,9.934,
07/02/2025,12:08:25.88,-80.08,950.68,-247.56,-6.84,-0.74,0.92,24.75,60.90,19.65,34.12,9.934,
07/02/2025,12:08:25.98,-60.06,933.11,-247.56,-1.86,-0.11,1.30,23.10,59.55,19.35,34.21,9.934,
07/02/2025,12:08:26.08,-72.27,926.27,-254.39,1.37,-7.06,-0.83,24.90,59.10,18.75,34.31,9.934,
07/02/2025,12:08:26.18,-65.92,934.08,-271.48,3.79,-1.43,-0.81,24.60,59.85,19.80,34.40,9.934,
07/02/2025,12:08:26.28,-56.15,933.11,-261.72,2.27,1.0,1.90,24.0,59.70,18.45,34.31,9.934,
07/02/2025,12:08:26.38,-69.82,935.06,-273.93,0.31,0.85,0.18,25.20,59.70,19.20,34.12,9.935,
07/02/2025,12:08:26.48,-65.43,926.76,-268.55,1.92,1.11,3.12,24.0,60.90,18.45,34.31,9.935,
07/02/2025,12:08:26.58,-71.29,927.73,-274.41,0.34,-0.77,-0.14,25.65,60.30,18.75,34.31,9.935,
07/02/2025,12:08:26.68,-68.36,938.96,-264.16,0.31,0.93,0.28,26.10,60.30,18.30,34.36,9.935,
07/02/2025,12:08:26.78,-63.96,939.94,-272.95,-0.27,2.01,-0.74,25.80,60.15,17.85,34.31,9.933,
07/02/2025,12:08:26.88,-61.04,929.69,-273.44,-1.12,-3.81,1.76,25.35,61.05,18.30,34.12,9.934,
07/02/2025,12:08:26.98,-55.66,931.15,-279.30,-3.21,2.83,2.02,25.20,60.45,17.85,34.36,9.934,
07/02/2025,12:08:27.09,-68.36,947.27,-273.93,1.28,-1.39,0.69,25.80,60.15,19.95,34.21,9.934,
07/02/2025,12:08:27.19,-72.75,937.01,-273.44,1.84,1.24,1.18,24.90,58.80,18.30,34.40,9.934,
07/02/2025,12:08:27.29,-69.34,936.52,-284.18,1.72,0.98,1.34,25.65,61.50,19.35,34.21,9.934,
07/02/2025,12:08:27.39,-63.48,926.76,-274.90,-0.35,-3.57,3.56,25.80,60.15,17.85,34.16,9.934,
07/02/2025,12:08:27.49,-59.57,940.92,-277.34,-1.25,3.14,-1.0,24.90,61.05,16.50,34.16,9.934,
07/02/2025,12:08:27.59,-51.76,914.06,-280.76,0.24,-2.27,1.78,25.35,61.50,17.55,34.31,9.934,
07/02/2025,12:08:27.69,-57.13,937.01,-293.95,-2.82,4.67,-1.63,24.15,60.30,18.75,34.31,9.934,
07/02/2025,12:08:27.79,-66.41,936.04,-292.97,-0.96,-0.29,2.52,23.70,59.40,18.15,34.21,9.934,
07/02/2025,12:08:27.89,-111.82,950.20,-248.05,-15.74,-2.21,1.48,23.85,61.05,18.75,34.12,9.935,
07/02/2025,12:08:27.99,3.42,910.16,-325.20,33.49,-0.99,5.82,24.75,60.15,20.25,34.02,9.933,
07/02/2025,12:08:28.09,56.15,1416.50,-138.18,-81.28,32.39,52.19,24.60,60.75,15.75,34.21,9.933,
07/02/2025,12:08:28.19,-35.16,929.69,-275.88,68.74,-10.40,-14.42,24.75,60.45,19.65,34.36,9.933,
07/02/2025,12:08:28.30,-40.53,920.41,-291.50,-42.90,-0.51,2.68,22.80,60.30,17.25,34.36,9.933,
07/02/2025,12:08:28.40,-64.94,982.42,-294.92,4.11,-4.28,1.63,22.95,61.20,17.40,34.31,9.934,
07/02/2025,12:08:28.50,-17.58,917.97,-285.64,4.66,-7.98,8.49,23.25,60.45,18.45,33.83,9.934,
07/02/2025,12:08:28.60,-53.71,937.99,-237.79,13.03,-5.26,-7.50,23.25,61.65,17.10,34.40,9.934,
07/02/2025,12:08:28.70,-69.34,899.41,-299.80,-9.05,-2.84,-0.33,23.10,61.05,18.0,34.21,9.934,
07/02/2025,12:08:28.80,-47.36,926.27,-286.62,-3.27,-1.95,4.39,22.95,60.45,17.40,34.40,9.934,
07/02/2025,12:08:28.90,-26.86,931.15,-278.32,2.01,4.86,0.47,22.50,61.20,16.65,34.31,9.934,
07/02/2025,12:08:29.00,-2.93,933.59,-310.55,-9.27,9.56,-1.70,21.75,60.15,19.20,34.21,9.934,
07/02/2025,12:08:29.10,-44.43,945.31,-255.86,-2.90,7.45,-2.11,23.25,60.45,17.40,34.21,9.934,
07/02/2025,12:08:29.20,-42.97,945.31,-273.93,-0.11,2.28,-3.56,22.05,59.10,17.55,34.36,9.934,
07/02/2025,12:08:29.30,-21.48,928.71,-263.67,2.01,-0.63,-0.38,21.75,61.20,18.15,34.40,9.933,
07/02/2025,12:08:29.40,-31.74,935.55,-265.63,-1.98,3.0,-4.30,26.10,61.50,17.55,34.21,9.933,
07/02/2025,12:08:29.50,-48.34,936.52,-261.72,-0.08,-1.82,1.09,24.0,61.20,17.85,34.40,9.933,
07/02/2025,12:08:29.61,-32.23,943.85,-278.32,-2.79,3.48,-0.29,22.95,60.90,17.85,34.21,9.933,
07/02/2025,12:08:29.71,-36.62,923.83,-274.90,3.56,-4.69,-0.01,23.55,61.50,16.95,34.21,9.933,
07/02/2025,12:08:29.81,-23.44,933.11,-277.34,0.09,1.98,-1.78,22.80,61.80,17.55,34.02,9.934,
07/02/2025,12:08:29.91,-35.16,922.85,-288.57,0.83,-0.85,3.31,23.55,61.05,17.55,34.40,9.934,
07/02/2025,12:08:30.01,-34.67,932.13,-279.30,-1.17,2.37,0.44,23.55,58.80,17.25,34.40,9.934,
07/02/2025,12:08:30.11,-33.20,929.20,-282.23,2.60,-0.19,1.34,23.55,61.50,16.95,34.02,9.934,
07/02/2025,12:08:30.21,-38.09,935.55,-284.18,-0.63,2.84,1.79,21.45,62.40,17.85,34.31,9.934,
07/02/2025,12:08:30.31,-39.06,934.08,-297.36,1.15,-2.41,2.29,23.55,61.05,17.55,34.16,9.934,
07/02/2025,12:08:30.41,-43.95,933.59,-283.69,-0.40,2.23,1.81,23.25,60.15,17.85,34.21,9.934,
07/02/2025,12:08:30.51,-43.46,926.76,-297.36,-0.60,2.68,-1.10,22.80,61.50,16.20,34.50,9.934,
07/02/2025,12:08:30.61,-23.44,915.53,-295.41,0.12,1.97,0.39,22.50,61.20,18.45,34.21,9.933,
07/02/2025,12:08:30.71,-51.76,949.71,-299.32,-3.66,4.73,-1.90,23.70,61.65,17.10,34.12,9.933,
07/02/2025,12:08:30.82,-47.85,938.96,-294.92,-1.25,3.16,0.94,22.35,61.05,18.0,34.31,9.933,
07/02/2025,12:08:30.92,-38.57,918.95,-290.04,-0.17,1.39,-0.19,22.35,61.05,18.30,34.40,9.933,
07/02/2025,12:08:31.02,-37.11,937.50,-305.18,2.21,1.62,1.02,22.35,61.50,17.55,34.02,9.933,
07/02/2025,12:08:31.12,-19.04,928.71,-297.85,-1.37,1.15,-1.28,22.50,61.65,15.30,34.36,9.933,
07/02/2025,12:08:31.22,-35.16,922.36,-298.83,0.28,2.01,0.21,23.85,62.25,16.20,34.16,9.933,
07/02/2025,12:08:31.32,-38.09,931.64,-290.53,-1.88,0.88,-2.63,23.10,59.85,18.30,34.21,9.934,
07/02/2025,12:08:31.42,-27.34,929.20,-307.62,-0.05,-0.45,-0.44,23.55,63.30,16.95,34.36,9.934,
07/02/2025,12:08:31.52,-36.13,933.59,-297.36,-3.21,1.48,-1.77,24.45,60.45,16.65,34.21,9.934,
07/02/2025,12:08:31.62,-39.06,930.66,-310.06,-0.60,0.07,2.14,22.80,60.30,16.50,34.31,9.934,
07/02/2025,12:08:31.72,-35.16,919.92,-293.46,-1.85,0.76,0.08,24.15,63.30,17.25,34.02,9.934,
07/02/2025,12:08:31.82,-38.09,927.73,-299.80,-1.82,-0.47,0.56,23.70,60.90,16.35,34.31,9.933,
07/02/2025,12:08:31.92,-26.86,921.39,-310.06,-2.73,0.38,-1.19,21.75,62.70,16.65,34.31,9.933,
07/02/2025,12:08:32.02,-38.09,941.89,-294.43,1.23,-2.24,3.48,24.0,61.65,16.65,34.31,9.933,
07/02/2025,12:08:32.13,-32.23,919.92,-292.97,-2.16,1.47,-0.88,21.45,62.70,17.10,34.31,9.933,
07/02/2025,12:08:32.23,-34.67,933.11,-303.22,-0.76,-2.16,0.76,23.25,60.90,18.45,34.02,9.933,
07/02/2025,12:08:32.33,-31.74,937.99,-297.85,-2.77,0.71,-2.02,23.55,61.80,16.50,34.21,9.933,
07/02/2025,12:08:32.43,-34.67,935.55,-304.20,0.30,-1.98,1.20,22.95,60.15,17.85,34.31,9.933,
07/02/2025,12:08:32.53,-48.83,924.80,-298.34,-5.92,5.83,-0.18,24.60,60.75,17.55,34.12,9.933,
07/02/2025,12:08:32.63,-28.32,930.18,-307.62,-1.37,-1.04,2.39,22.50,60.90,16.65,33.88,9.933,
07/02/2025,12:08:32.73,-64.45,938.48,-282.71,-5.84,0.69,-1.77,22.20,60.45,17.40,33.97,9.933,
07/02/2025,12:08:32.83,-21.00,929.69,-286.13,2.45,2.27,0.63,22.95,60.15,18.15,34.40,9.934,
07/02/2025,12:08:32.93,-43.46,933.59,-296.39,2.64,2.63,-1.27,23.55,60.75,19.05,34.12,9.934,
07/02/2025,12:08:33.03,-33.20,926.76,-287.11,-1.48,0.30,1.09,22.20,60.45,17.40,34.21,9.934,
07/02/2025,12:08:33.13,-32.23,932.13,-289.06,-0.50,1.70,-1.82,23.85,61.50,16.20,34.21,9.932,
07/02/2025,12:08:33.23,-41.99,930.66,-289.06,2.31,-3.32,3.39,24.45,62.40,17.40,34.12,9.933,
07/02/2025,12:08:33.33,-31.74,935.06,-300.78,1.53,-1.76,-0.65,23.85,59.55,18.0,34.21,9.933,
07/02/2025,12:08:33.44,-41.99,918.46,-296.88,2.60,-1.56,2.03,22.35,59.55,17.25,34.31,9.933,
07/02/2025,12:08:33.54,-48.34,933.59,-299.80,-1.11,1.66,0.04,23.85,60.75,17.25,34.12,9.933,
07/02/2025,12:08:33.64,-45.90,918.46,-298.83,2.40,3.37,2.95,23.10,59.85,17.25,34.31,9.933,
07/02/2025,12:08:33.74,-57.13,930.18,-308.11,1.27,-0.34,-0.72,23.70,61.20,16.65,34.21,9.933,
07/02/2025,12:08:33.84,-24.41,923.34,-302.25,-0.20,0.84,-0.53,22.95,61.65,16.05,34.02,9.933,
07/02/2025,12:08:33.94,-41.02,919.92,-296.39,1.23,-0.71,-2.01,24.45,62.40,16.35,34.16,9.933,
07/02/2025,12:08:34.04,-42.48,932.62,-313.48,-2.90,7.71,-2.79,23.25,60.15,16.65,34.21,9.933,
07/02/2025,12:08:34.14,-43.46,920.90,-311.04,1.53,8.85,-2.28,23.70,60.90,16.65,34.31,9.933,
07/02/2025,12:08:34.24,-72.75,918.95,-309.08,-0.42,6.33,-7.53,25.65,59.85,14.40,34.16,9.933,
07/02/2025,12:08:34.34,-74.22,926.27,-321.29,6.18,3.61,-5.40,25.65,62.25,16.20,33.78,9.934,
07/02/2025,12:08:34.44,-66.89,884.28,-327.15,3.60,2.63,-2.47,26.55,59.40,14.85,34.21,9.932,
07/02/2025,12:08:34.54,-80.57,912.11,-353.52,5.69,1.65,-1.36,26.25,61.20,13.50,34.12,9.932,
07/02/2025,12:08:34.65,-67.87,920.90,-363.77,7.45,-1.48,-8.10,26.25,59.40,13.50,34.31,9.933,
07/02/2025,12:08:34.75,-104.49,903.32,-354.00,11.85,-9.85,-2.01,27.0,61.65,13.80,34.21,9.933,
07/02/2025,12:08:34.85,-97.17,903.32,-399.90,5.76,-1.53,-2.86,26.10,59.85,12.15,33.88,9.933,
07/02/2025,12:08:34.95,-101.56,890.63,-413.57,7.25,1.95,-3.08,27.75,59.40,11.70,34.31,9.933,
07/02/2025,12:08:35.05,-127.44,885.25,-423.34,3.31,3.92,-5.12,27.90,60.75,10.35,34.02,9.933,
07/02/2025,12:08:35.15,-112.30,891.11,-419.43,3.84,5.56,-1.67,26.25,59.70,9.15,34.31,9.933,
07/02/2025,12:08:35.25,-120.61,878.42,-435.06,1.85,3.21,-4.14,29.40,61.05,10.35,34.16,9.933,
07/02/2025,12:08:35.35,-118.16,875.0,-439.94,3.13,3.37,-0.93,28.20,61.05,9.60,34.02,9.933,
07/02/2025,12:08:35.45,-115.23,870.61,-446.29,-1.44,3.37,0.57,28.80,60.15,10.50,34.36,9.933,
07/02/2025,12:08:35.55,-112.79,872.07,-437.99,-1.21,3.69,-0.78,29.40,61.80,9.60,34.31,9.933,
07/02/2025,12:08:35.65,-108.89,870.12,-437.99,-3.92,3.88,-2.73,28.05,61.20,8.40,34.31,9.933,
07/02/2025,12:08:35.75,-118.65,862.30,-450.68,-0.33,4.32,2.47,29.40,59.85,9.0,34.21,9.932,
07/02/2025,12:08:35.85,-104.49,867.68,-448.73,-1.35,7.30,-1.02,28.95,59.85,9.0,33.97,9.932,
07/02/2025,12:08:35.96,-119.63,864.75,-446.29,2.21,6.04,-0.78,29.25,60.45,8.40,34.12,9.932,
07/02/2025,12:08:36.06,-93.75,864.26,-443.36,-0.99,5.99,-3.55,28.95,59.10,7.20,34.36,9.932,
07/02/2025,12:08:36.16,-97.66,889.16,-454.59,-0.24,4.18,1.14,29.85,60.15,6.90,34.12,9.933,
07/02/2025,12:08:36.26,-93.26,870.12,-458.01,0.56,7.47,0.64,29.85,58.65,6.90,34.36,9.933,
07/02/2025,12:08:36.36,-101.07,859.86,-460.45,3.90,1.95,1.24,29.25,59.70,6.60,34.12,9.933,
07/02/2025,12:08:36.46,-78.61,871.58,-464.36,0.95,6.89,-2.05,29.70,61.50,6.0,34.31,9.933,
07/02/2025,12:08:36.56,-107.42,863.77,-452.64,-2.88,2.31,0.42,30.45,58.35,6.0,34.16,9.933,
07/02/2025,12:08:36.66,-89.36,853.03,-460.45,-0.78,1.59,4.02,29.55,58.20,5.55,34.21,9.933,
07/02/2025,12:08:36.76,-91.80,862.30,-462.89,-3.73,-2.56,1.02,31.05,60.15,4.80,34.36,9.933,
07/02/2025,12:08:36.86,-55.66,854.49,-449.22,-0.07,0.59,3.52,29.25,59.70,5.55,34.21,9.933,
07/02/2025,12:08:36.96,-68.36,870.12,-462.40,-0.44,4.93,1.85,28.65,59.55,6.0,34.02,9.932,
07/02/2025,12:08:37.06,-77.15,876.46,-449.22,-2.50,3.01,0.85,28.50,60.45,6.90,34.12,9.932,
07/02/2025,12:08:37.16,-60.06,872.56,-441.89,-8.21,-3.39,0.38,28.05,58.95,6.90,34.31,9.932,
07/02/2025,12:08:37.27,-57.62,873.54,-439.45,-5.24,1.16,2.94,28.65,60.30,8.55,34.40,9.932,
07/02/2025,12:08:37.37,-85.94,870.12,-414.55,-12.44,-0.21,1.37,30.90,60.75,9.60,34.31,9.932,
07/02/2025,12:08:37.47,-51.27,875.0,-406.25,-7.85,5.05,-1.06,28.05,59.70,8.70,34.21,9.932,
07/02/2025,12:08:37.57,-80.08,858.89,-389.16,-19.58,9.47,-8.86,30.45,59.55,10.80,34.40,9.932,
07/02/2025,12:08:37.67,-72.27,889.16,-363.77,-5.04,1.56,-4.87,29.40,60.75,10.35,34.16,9.933,
07/02/2025,12:08:37.77,-77.64,929.69,-355.96,-8.24,0.24,-2.64,28.65,59.55,12.15,34.31,9.933,
07/02/2025,12:08:37.87,-63.96,916.99,-337.89,-6.79,-5.44,5.42,29.25,60.15,11.70,34.12,9.933,
07/02/2025,12:08:37.97,-66.41,919.43,-313.96,-13.34,-3.07,0.11,28.50,58.65,12.45,34.16,9.933,
07/02/2025,12:08:38.07,-91.31,911.62,-297.36,-4.34,-9.19,0.89,29.85,59.40,13.50,33.88,9.933,
07/02/2025,12:08:38.17,-85.45,926.76,-302.73,-3.05,-1.02,0.82,29.40,58.35,15.15,34.16,9.933,
07/02/2025,12:08:38.27,-85.94,918.95,-293.46,-0.56,-3.22,3.46,28.80,59.70,14.85,34.21,9.932,
07/02/2025,12:08:38.37,-84.96,921.88,-299.32,-3.76,-4.64,-2.53,30.30,59.40,14.25,34.31,9.932,
07/02/2025,12:08:38.47,-94.73,928.22,-296.88,-0.29,-2.98,0.71,29.70,59.85,15.75,34.21,9.932,
07/02/2025,12:08:38.58,-82.03,925.29,-293.46,-2.99,-0.78,-0.32,28.80,57.90,16.05,34.02,9.932,
07/02/2025,12:08:38.68,-83.50,930.66,-297.85,-3.08,1.29,1.21,28.95,59.55,14.40,34.21,9.932,
07/02/2025,12:08:38.78,-100.10,927.73,-287.60,-3.25,0.08,-1.53,27.90,59.85,14.70,34.21,9.932,
07/02/2025,12:08:38.88,-87.89,923.83,-294.43,-0.43,-4.13,4.18,27.45,59.85,16.20,34.21,9.932,
07/02/2025,12:08:38.98,-72.75,937.99,-281.74,-2.16,0.16,0.20,27.15,58.80,15.45,34.02,9.932,
07/02/2025,12:08:39.08,-82.03,937.01,-283.69,-0.52,-2.80,1.08,28.95,59.55,16.20,34.31,9.932,
07/02/2025,12:08:39.18,-70.31,944.82,-290.04,-4.40,4.97,0.94,28.95,59.85,15.45,34.02,9.933,
07/02/2025,12:08:39.28,-83.01,925.78,-277.83,0.18,-1.22,3.12,28.95,58.80,16.95,34.36,9.933,
07/02/2025,12:08:39.38,-84.47,934.08,-277.34,-1.65,2.06,-0.92,27.45,59.10,15.15,34.02,9.933,
07/02/2025,12:08:39.48,-83.98,939.94,-278.32,-0.53,-0.44,-0.81,28.20,58.80,15.15,34.21,9.933,
07/02/2025,12:08:39.58,-81.05,926.76,-279.30,-3.01,2.72,-1.81,27.15,59.10,16.20,34.36,9.932,
07/02/2025,12:08:39.68,-85.45,934.57,-275.88,-1.86,0.31,-0.76,27.75,59.70,16.05,33.88,9.932,
07/02/2025,12:08:39.79,-93.26,940.43,-278.81,0.50,0.07,0.19,28.80,59.40,15.60,34.02,9.932,
07/02/2025,12:08:39.89,-89.36,932.62,-283.20,-1.22,4.85,-3.64,28.20,59.85,15.45,34.21,9.932,
07/02/2025,12:08:39.99,-96.68,937.99,-278.81,0.37,-0.27,0.89,28.50,58.95,15.60,34.16,9.932,
07/02/2025,12:08:40.09,-101.07,934.57,-286.13,0.34,4.26,0.39,28.50,58.95,16.05,34.21,9.932,
07/02/2025,12:08:40.19,-87.40,935.06,-289.55,0.09,-2.91,0.67,28.05,59.40,14.85,34.12,9.932,
07/02/2025,12:08:40.29,-93.75,930.18,-271.97,-1.31,3.97,-0.72,28.95,59.55,15.15,34.02,9.932,
07/02/2025,12:08:40.39,-83.50,929.20,-290.53,1.46,-0.80,3.94,28.95,59.10,15.15,34.21,9.932,
07/02/2025,12:08:40.49,-100.59,925.78,-290.04,-2.38,4.15,-1.50,27.75,59.70,15.60,34.02,9.932,
07/02/2025,12:08:40.59,-91.31,926.27,-297.85,0.31,-0.32,1.15,27.45,59.10,14.40,34.12,9.933,
07/02/2025,12:08:40.69,-83.50,924.80,-283.20,-1.39,3.36,3.76,27.75,59.40,14.85,34.21,9.933,
07/02/2025,12:08:40.79,-83.50,934.08,-297.36,2.38,0.37,4.55,28.50,58.95,15.60,34.16,9.932,
07/02/2025,12:08:40.89,-96.19,932.62,-301.27,-0.49,0.79,-0.80,28.05,60.45,14.25,34.31,9.932,
07/02/2025,12:08:40.99,-91.80,935.06,-290.53,-1.73,-1.78,2.02,30.30,60.15,13.50,34.50,9.932,
07/02/2025,12:08:41.10,-75.20,923.34,-289.55,-2.68,3.27,1.72,28.65,60.75,14.40,34.02,9.932,
07/02/2025,12:08:41.20,-86.91,927.73,-310.55,-0.96,-2.08,2.51,29.25,58.65,16.05,34.12,9.932,
07/02/2025,12:08:41.30,-85.94,925.78,-298.83,-1.63,4.99,-1.50,28.20,57.30,13.95,34.31,9.932,
07/02/2025,12:08:41.40,-87.89,919.43,-293.95,0.05,0.08,1.96,29.85,60.90,14.55,34.21,9.932,
07/02/2025,12:08:41.50,-77.64,931.64,-300.78,-2.34,1.24,-1.34,28.50,58.65,14.85,34.16,9.932,
07/02/2025,12:08:41.60,-97.17,919.92,-301.27,0.50,-4.27,1.63,28.50,58.65,14.85,33.88,9.932,
07/02/2025,12:08:41.70,-91.31,922.36,-294.43,-3.24,-0.63,-3.21,29.85,60.15,15.60,33.97,9.932,
07/02/2025,12:08:41.80,-97.66,923.34,-301.27,0.66,-1.82,2.68,29.25,59.70,15.60,34.16,9.932,
07/02/2025,12:08:41.90,-83.50,930.66,-295.90,-3.56,1.44,-1.53,28.65,58.80,15.15,34.02,9.932,
07/02/2025,12:08:42.00,-87.89,933.11,-306.64,0.47,-3.35,5.75,29.25,60.15,14.85,34.21,9.931,
07/02/2025,12:08:42.10,-84.96,928.71,-290.53,-1.41,-2.76,-0.83,28.20,59.55,17.25,34.21,9.931,
07/02/2025,12:08:42.20,-87.89,925.29,-294.43,-2.31,-1.22,-4.99,28.20,59.55,14.40,33.88,9.931,
07/02/2025,12:08:42.30,-95.70,922.36,-293.46,-1.64,0.13,4.02,28.65,58.80,14.70,33.97,9.932,
07/02/2025,12:08:42.41,-83.01,936.04,-286.62,-1.19,-0.63,-0.63,27.90,61.50,15.45,34.21,9.932,
07/02/2025,12:08:42.51,-97.17,942.38,-286.13,-0.34,-1.15,2.16,28.20,58.80,14.40,34.50,9.932,
07/02/2025,12:08:42.61,-90.82,931.15,-292.48,-2.26,-0.21,-0.14,28.50,58.65,16.05,34.12,9.932,
07/02/2025,12:08:42.71,-104.98,932.13,-291.99,-0.33,-1.33,3.15,27.0,59.40,15.60,33.97,9.932,
07/02/2025,12:08:42.81,-87.89,935.55,-294.43,-0.71,-0.77,-1.72,28.95,60.30,16.20,34.16,9.932,
07/02/2025,12:08:42.91,-92.77,922.36,-291.02,3.45,1.17,2.13,28.80,60.15,16.05,34.02,9.932,
07/02/2025,12:08:43.01,-87.40,915.53,-283.69,-2.82,-0.84,-0.06,29.55,59.70,16.65,34.21,9.932,
07/02/2025,12:08:43.11,-87.89,935.06,-292.97,1.62,-0.24,2.38,28.50,58.65,16.05,34.02,9.932,
07/02/2025,12:08:43.21,-89.84,916.50,-295.90,-0.92,0.67,-1.54,28.20,59.55,15.45,33.78,9.932,
07/02/2025,12:08:43.31,-82.52,927.73,-296.88,1.05,-2.51,-2.34,27.90,58.05,15.75,33.97,9.931,
07/02/2025,12:08:43.41,-86.91,915.04,-294.43,-2.32,4.31,-3.79,29.70,59.55,15.15,34.21,9.931,
07/02/2025,12:08:43.51,-86.91,920.90,-308.11,-0.24,2.20,1.43,29.85,57.0,15.30,34.12,9.931,
07/02/2025,12:08:43.62,-97.66,923.83,-294.92,0.86,-1.98,1.98,28.95,59.55,15.45,34.36,9.931,
07/02/2025,12:08:43.72,-90.82,925.78,-287.11,-3.34,0.82,-0.25,27.30,60.45,15.60,33.97,9.932,
07/02/2025,12:08:43.82,-74.22,936.52,-291.02,-0.60,-0.85,0.80,28.50,57.45,15.30,34.02,9.932,
07/02/2025,12:08:43.92,-89.36,921.88,-282.71,-1.71,1.47,-2.19,27.90,60.30,15.75,34.31,9.932,
07/02/2025,12:08:44.02,-78.13,922.85,-288.09,1.47,-0.07,2.23,28.50,57.90,16.05,34.12,9.932,
07/02/2025,12:08:44.12,-75.20,933.59,-275.39,-3.55,2.11,-0.76,28.95,58.05,15.45,34.40,9.932,
07/02/2025,12:08:44.22,-86.43,933.11,-282.23,-1.14,-1.40,3.15,26.40,58.80,15.45,34.21,9.932,
07/02/2025,12:08:44.32,-84.47,936.04,-279.79,-0.73,3.45,-3.23,26.55,58.20,16.05,33.97,9.932,
07/02/2025,12:08:44.42,-87.40,933.59,-275.39,2.15,-2.53,3.40,29.40,58.05,16.50,34.16,9.932,
07/02/2025,12:08:44.52,-93.75,929.20,-274.90,-0.15,0.49,0.16,28.50,60.15,17.10,34.21,9.932,
07/02/2025,12:08:44.62,-100.10,935.06,-273.93,1.44,-1.56,-0.97,28.80,58.65,15.30,34.40,9.931,
07/02/2025,12:08:44.72,-96.68,938.96,-285.16,-1.60,4.96,0.92,28.50,58.65,16.65,34.31,9.931,
07/02/2025,12:08:44.82,-97.17,924.80,-285.64,-0.52,0.11,2.27,27.45,58.35,15.75,34.21,9.931,
07/02/2025,12:08:44.93,-97.17,937.99,-283.20,0.64,2.56,-1.33,28.50,60.15,14.85,34.21,9.931,
07/02/2025,12:08:45.03,-97.17,928.71,-282.71,-0.60,-0.36,0.27,28.80,59.40,13.80,34.02,9.931,
07/02/2025,12:08:45.13,-95.70,932.62,-273.93,-1.76,0.84,-1.88,28.65,58.80,14.70,34.31,9.931,
07/02/2025,12:08:45.23,-80.08,932.13,-287.11,0.97,-2.21,-0.01,29.25,59.70,16.65,34.36,9.932,
07/02/2025,12:08:45.33,-96.19,926.27,-283.69,0.53,1.32,0.02,29.25,58.95,14.85,33.83,9.932,
07/02/2025,12:08:45.43,-76.17,938.48,-282.71,3.69,-0.08,3.18,28.50,58.95,15.60,34.02,9.932,
07/02/2025,12:08:45.53,-89.36,919.92,-288.09,-1.86,0.87,-3.55,28.05,57.90,15.30,34.36,9.932,
07/02/2025,12:08:45.63,-90.33,923.83,-285.16,-0.76,-0.14,3.62,28.80,59.40,15.30,34.16,9.932,
07/02/2025,12:08:45.73,-111.82,939.45,-290.04,-1.46,3.28,0.20,27.75,58.20,14.85,34.21,9.932,
07/02/2025,12:08:45.83,-85.45,939.94,-282.71,0.61,1.27,1.85,28.95,59.55,15.45,33.97,9.931,
07/02/2025,12:08:45.93,-98.63,930.66,-284.18,-0.53,1.31,-0.93,28.50,58.95,14.85,34.16,9.931,
07/02/2025,12:08:46.03,-92.77,920.90,-290.04,-0.12,-2.69,-0.61,29.55,60.15,16.05,34.40,9.931,
07/02/2025,12:08:46.13,-87.89,933.59,-288.57,-1.77,1.34,-3.53,29.70,58.35,15.15,33.97,9.931,
07/02/2025,12:08:46.24,-83.50,922.36,-284.18,-0.34,-0.75,1.44,28.65,58.35,14.40,34.21,9.931,
07/02/2025,12:08:46.34,-97.66,928.71,-290.04,-3.17,-0.85,-2.63,29.70,58.35,15.45,34.12,9.931,
07/02/2025,12:08:46.44,-90.33,932.13,-288.57,0.29,-0.05,4.46,28.65,58.35,14.70,34.31,9.931,
07/02/2025,12:08:46.54,-106.45,924.32,-287.60,-3.75,2.10,-2.0,28.80,59.40,15.60,34.02,9.931,
07/02/2025,12:08:46.64,-95.21,924.80,-289.06,-0.15,-0.46,1.31,30.30,59.40,16.05,34.31,9.932,
07/02/2025,12:08:46.74,-106.93,925.29,-280.76,-2.58,2.37,-1.04,28.95,58.80,15.45,34.02,9.932,
07/02/2025,12:08:46.84,-86.91,932.13,-284.18,-1.72,3.76,0.07,29.40,59.85,14.40,33.88,9.932,
07/02/2025,12:08:46.94,-109.86,924.32,-292.48,-2.84,-0.62,-2.14,28.95,58.80,14.70,34.21,9.932,
07/02/2025,12:08:47.04,-104.98,924.80,-281.74,-0.76,0.15,-1.44,27.90,58.05,13.95,34.02,9.932,
07/02/2025,12:08:47.14,-93.26,931.15,-287.60,1.49,-1.96,-1.22,29.25,59.40,15.60,34.21,9.931,
07/02/2025,12:08:47.24,-101.07,928.22,-285.64,-3.47,1.23,-0.05,30.30,58.95,14.25,34.02,9.931,
07/02/2025,12:08:47.34,-93.75,933.59,-278.32,-1.71,-0.25,3.43,30.15,58.35,15.75,33.97,9.931,
07/02/2025,12:08:47.44,-92.29,924.80,-290.53,-0.35,4.06,-1.01,29.25,58.20,15.60,34.21,9.931,
07/02/2025,12:08:47.55,-89.36,943.36,-286.13,-1.92,-0.29,2.47,28.65,59.10,14.70,34.21,9.931,
07/02/2025,12:08:47.65,-99.61,936.52,-287.11,-1.37,1.27,0.27,28.50,59.40,14.85,34.12,9.931,
07/02/2025,12:08:47.75,-87.89,930.18,-289.06,3.19,1.56,2.63,29.70,59.10,16.20,33.83,9.931,
07/02/2025,12:08:47.85,-91.31,938.96,-272.46,-3.94,2.73,-0.21,28.80,58.95,14.85,34.36,9.931,
07/02/2025,12:08:47.95,-103.52,931.15,-281.74,0.14,-3.37,2.48,30.30,58.20,14.55,34.02,9.931,
07/02/2025,12:08:48.05,-90.82,929.20,-297.36,-3.28,0.14,-1.75,28.50,60.45,15.30,34.21,9.931,
07/02/2025,12:08:48.15,-94.24,929.20,-284.67,-0.27,3.79,0.26,29.55,58.65,15.60,33.97,9.932,
07/02/2025,12:08:48.25,-98.14,934.57,-282.23,-4.89,0.85,-0.04,28.65,58.80,16.20,33.68,9.932,
07/02/2025,12:08:48.35,-84.47,937.01,-282.71,-1.96,-1.92,2.80,29.25,58.20,15.60,34.21,9.932,
07/02/2025,12:08:48.45,-93.26,930.18,-276.86,-2.28,1.39,-0.44,29.70,59.10,16.20,34.12,9.931,
07/02/2025,12:08:48.55,-98.63,934.08,-281.25,0.93,0.31,-0.91,28.50,57.90,15.30,34.21,9.931,
07/02/2025,12:08:48.65,-100.59,916.99,-278.32,-1.50,2.10,-1.92,27.90,59.85,15.75,34.02,9.931,
07/02/2025,12:08:48.76,-91.80,926.76,-277.83,3.25,-2.16,2.07,27.45,58.35,16.50,33.83,9.931,
07/02/2025,12:08:48.86,-93.26,946.29,-286.13,-4.43,0.78,-5.02,27.0,59.70,16.65,34.12,9.931,
07/02/2025,12:08:48.96,-95.21,918.95,-279.79,-1.69,1.18,2.87,29.70,57.60,13.95,34.16,9.931,
07/02/2025,12:08:49.06,-96.19,935.06,-288.57,-3.24,-0.08,-0.66,29.40,58.80,15.75,34.31,9.931,
07/02/2025,12:08:49.16,-106.93,922.85,-276.86,0.61,-0.40,1.08,28.20,59.55,16.20,33.88,9.931,
07/02/2025,12:08:49.26,-104.49,937.50,-284.18,-3.88,1.36,-1.03,28.95,60.75,16.20,33.88,9.931,
07/02/2025,12:08:49.36,-103.52,927.25,-275.88,-0.05,4.34,-0.34,30.90,58.80,15.75,34.21,9.931,
07/02/2025,12:08:49.46,-107.42,927.73,-273.93,1.49,-0.46,1.47,28.05,58.95,16.05,34.12,9.931,
07/02/2025,12:08:49.56,-100.59,932.62,-271.48,-0.50,-1.25,-1.69,30.30,58.20,17.10,34.21,9.932,
07/02/2025,12:08:49.66,-111.82,939.45,-262.21,2.37,1.17,1.43,29.85,58.95,16.05,33.97,9.932,
07/02/2025,12:08:49.76,-111.82,929.69,-275.88,-1.98,2.30,1.27,28.95,57.60,16.95,34.02,9.931,
07/02/2025,12:08:49.86,-105.47,920.90,-268.07,0.13,3.16,3.39,29.70,58.35,15.45,34.12,9.931,
07/02/2025,12:08:49.96,-120.61,925.29,-262.70,-1.60,-0.14,-2.92,30.30,57.45,16.35,34.21,9.931,
07/02/2025,12:08:50.07,-101.07,933.11,-283.20,3.47,-0.73,0.87,29.70,58.05,15.15,34.16,9.931,
07/02/2025,12:08:50.17,-121.58,918.46,-288.57,2.95,1.11,-0.29,28.50,58.20,16.05,33.83,9.931,
07/02/2025,12:08:50.27,-115.23,930.66,-283.20,3.73,-0.12,6.13,28.80,58.95,14.25,33.88,9.931,
07/02/2025,12:08:50.37,-104.00,932.13,-282.23,-1.40,2.50,-1.06,27.75,58.20,15.30,34.21,9.931,
07/02/2025,12:08:50.47,-108.40,916.50,-293.46,2.70,-0.54,1.56,29.25,58.20,16.35,34.16,9.931,
07/02/2025,12:08:50.57,-96.19,923.34,-298.34,-0.52,2.44,-1.24,28.65,58.80,15.45,34.02,9.931,
07/02/2025,12:08:50.67,-89.36,916.50,-294.43,-1.08,-0.45,4.19,29.55,58.95,14.85,34.02,9.931,
07/02/2025,12:08:50.77,-96.19,933.59,-305.66,-0.77,-0.02,0.41,27.90,59.10,13.65,34.36,9.931,
07/02/2025,12:08:50.87,-87.89,928.22,-289.55,-2.03,-2.59,-0.49,27.90,57.60,15.15,34.02,9.931,
07/02/2025,12:08:50.97,-81.54,950.68,-287.60,-2.34,-0.41,-2.95,27.90,58.80,15.45,34.21,9.931,
07/02/2025,12:08:51.07,-89.84,927.25,-288.57,1.08,0.37,-0.89,27.0,58.95,16.35,34.12,9.930,
07/02/2025,12:08:51.17,-75.20,927.73,-289.06,-1.82,1.65,-0.18,28.05,58.20,14.25,34.02,9.931,
07/02/2025,12:08:51.27,-76.66,924.32,-288.57,1.02,-1.76,1.95,28.05,60.15,15.60,34.21,9.931,
07/02/2025,12:08:51.38,-98.63,931.15,-287.11,-2.52,2.29,-0.30,26.25,61.20,15.60,34.02,9.931,
07/02/2025,12:08:51.48,-89.36,921.88,-281.74,0.24,-0.66,2.38,29.55,59.70,16.35,34.12,9.931,
07/02/2025,12:08:51.58,-86.43,943.36,-289.06,-2.97,1.26,-4.09,29.25,60.15,14.55,34.31,9.931,
07/02/2025,12:08:51.68,-93.75,920.41,-284.18,1.11,-1.85,-0.15,28.20,59.55,14.70,33.97,9.931,
07/02/2025,12:08:51.78,-85.45,922.36,-286.13,-1.89,2.58,0.04,28.65,58.80,15.45,33.97,9.931,
07/02/2025,12:08:51.88,-97.66,935.55,-282.23,-1.59,0.19,3.15,28.50,57.45,15.30,34.02,9.931,
07/02/2025,12:08:51.98,-109.38,935.55,-284.67,1.69,-0.62,-3.58,30.30,57.90,14.85,34.02,9.931,
07/02/2025,12:08:52.08,-99.61,936.52,-276.37,1.25,-4.57,1.26,29.25,59.40,16.05,34.21,9.931,
07/02/2025,12:08:52.18,-95.70,927.73,-289.06,-2.31,0.60,-2.27,28.05,59.40,14.85,34.12,9.931,
07/02/2025,12:08:52.28,-115.72,924.80,-270.02,-0.13,-1.89,-1.31,29.25,58.65,16.05,34.02,9.931,
07/02/2025,12:08:52.38,-87.40,934.08,-286.62,-0.37,5.37,-2.08,29.55,58.95,15.30,34.02,9.930,
07/02/2025,12:08:52.48,-102.54,922.36,-280.76,1.53,1.18,2.26,29.55,59.70,13.50,34.31,9.930,
07/02/2025,12:08:52.59,-89.36,924.32,-302.73,1.39,-2.58,1.27,29.55,56.70,14.55,33.97,9.931,
07/02/2025,12:08:52.69,-92.29,936.52,-281.74,2.14,1.23,4.66,28.80,59.40,14.85,33.83,9.931,
07/02/2025,12:08:52.79,-90.33,922.36,-297.85,0.63,4.53,-2.92,27.75,58.95,15.30,34.16,9.931,
07/02/2025,12:08:52.89,-96.68,917.97,-312.01,2.42,0.99,2.35,29.55,59.40,15.60,34.02,9.931,
07/02/2025,12:08:52.99,-94.73,919.92,-297.85,4.92,2.11,1.47,29.70,58.05,12.90,34.02,9.931,
07/02/2025,12:08:53.09,-94.24,932.62,-303.71,-0.05,0.47,0.54,26.85,59.55,14.70,33.83,9.931,
07/02/2025,12:08:53.19,-91.80,918.95,-318.36,4.63,0.57,2.11,28.65,59.85,13.95,34.12,9.931,
07/02/2025,12:08:53.29,-95.70,914.55,-329.59,2.01,3.60,1.59,28.05,60.45,13.50,34.40,9.931,
07/02/2025,12:08:53.39,-89.36,902.83,-350.10,2.63,-0.50,2.57,27.15,59.55,13.35,34.12,9.931,
07/02/2025,12:08:53.49,-80.57,920.90,-326.17,-0.87,-1.24,2.73,27.90,58.80,13.95,34.02,9.931,
07/02/2025,12:08:53.59,-68.85,922.85,-325.68,-0.81,-0.89,2.59,27.90,58.80,12.90,33.88,9.931,
07/02/2025,12:08:53.69,-69.34,911.13,-348.14,0.09,2.27,3.70,27.90,60.75,12.60,34.02,9.930,
07/02/2025,12:08:53.79,-71.78,918.95,-347.17,2.37,2.24,3.25,27.45,59.55,13.95,34.02,9.930,
07/02/2025,12:08:53.90,-64.45,917.97,-336.91,-4.45,2.39,-2.77,28.05,60.45,13.50,34.36,9.930,
07/02/2025,12:08:54.00,-68.36,906.74,-346.68,0.47,0.38,2.24,27.45,60.30,12.90,34.12,9.931,
07/02/2025,12:08:54.10,-72.27,914.06,-333.50,-3.92,3.10,-2.32,27.15,60.30,13.35,33.88,9.931,
07/02/2025,12:08:54.20,-71.29,914.55,-331.05,-0.98,1.87,1.37,27.30,60.15,13.50,34.12,9.931,
07/02/2025,12:08:54.30,-73.73,919.43,-340.82,-3.68,1.97,1.24,28.20,59.55,14.40,34.02,9.931,
07/02/2025,12:08:54.40,-80.08,921.88,-331.05,0.89,-0.35,1.56,27.0,59.70,13.80,34.02,9.931,
07/02/2025,12:08:54.50,-74.71,921.39,-334.47,-4.92,0.95,-0.83,27.45,60.30,13.95,34.02,9.931,
07/02/2025,12:08:54.60,-83.98,916.02,-333.50,0.72,-1.79,0.83,28.50,60.90,12.45,34.02,9.931,
07/02/2025,12:08:54.70,-71.78,914.55,-324.71,-2.92,1.15,-1.40,28.80,59.70,14.25,34.02,9.931,
07/02/2025,12:08:54.80,-70.31,919.43,-321.29,-0.50,2.91,-2.88,27.75,60.45,13.50,34.21,9.931,
07/02/2025,12:08:54.90,-78.13,913.09,-337.89,-5.52,4.63,-6.13,28.20,58.80,14.40,34.12,9.931,
07/02/2025,12:08:55.00,-81.54,905.27,-325.68,-3.02,4.69,-5.32,28.65,59.55,15.45,34.21,9.930,
07/02/2025,12:08:55.10,-64.94,927.73,-321.29,-2.47,11.01,-6.38,28.05,58.65,11.25,34.12,9.930,
07/02/2025,12:08:55.21,-113.77,911.62,-322.75,0.05,6.26,-7.68,29.70,60.30,13.35,33.88,9.930,
07/02/2025,12:08:55.31,-108.40,899.90,-340.82,-0.38,5.01,-5.40,29.25,58.65,13.50,34.02,9.930,
07/02/2025,12:08:55.41,-104.98,927.73,-335.94,-3.33,7.82,-10.69,30.15,59.10,12.60,34.02,9.931,
07/02/2025,12:08:55.51,-125.49,898.93,-321.29,-5.69,-1.18,-8.53,31.20,58.35,11.85,33.97,9.931,
07/02/2025,12:08:55.61,-129.88,911.62,-321.78,-0.96,-0.20,-3.37,30.90,58.35,12.15,33.88,9.931,
07/02/2025,12:08:55.71,-132.32,916.50,-308.11,-1.65,2.40,-1.89,32.85,57.90,12.45,34.02,9.931,
07/02/2025,12:08:55.81,-153.81,901.37,-330.57,3.98,5.20,-6.97,33.75,56.85,12.60,34.12,9.931,
07/02/2025,12:08:55.91,-150.88,898.93,-323.73,4.76,0.83,-2.75,31.95,57.30,11.55,34.21,9.931,
07/02/2025,12:08:56.01,-133.30,910.16,-350.59,0.07,4.34,-4.47,32.55,57.45,10.50,33.64,9.931,
07/02/2025,12:08:56.11,-166.50,891.11,-353.52,5.23,9.73,-4.95,32.70,58.35,10.35,34.02,9.931,
07/02/2025,12:08:56.21,-172.36,880.86,-361.82,0.49,4.46,-2.41,32.85,57.90,9.90,33.88,9.930,
07/02/2025,12:08:56.31,-154.30,889.65,-385.25,5.73,1.48,2.13,33.90,56.70,9.45,34.02,9.930,
07/02/2025,12:08:56.41,-167.97,896.00,-372.56,0.19,6.82,-2.75,34.65,57.90,9.45,34.21,9.930,
07/02/2025,12:08:56.52,-168.46,886.72,-386.72,2.92,1.94,2.18,33.75,55.35,9.0,34.12,9.930,
07/02/2025,12:08:56.62,-166.99,868.16,-396.00,-2.06,-1.32,-0.47,34.50,54.60,9.60,34.12,9.930,
07/02/2025,12:08:56.72,-158.69,905.76,-371.58,-4.45,-2.35,6.50,35.25,56.55,9.0,34.21,9.930,
07/02/2025,12:08:56.82,-143.07,915.53,-371.58,-6.34,1.41,-1.71,33.75,56.55,10.05,33.68,9.930,
07/02/2025,12:08:56.92,-171.88,887.21,-354.49,-2.06,-0.85,3.99,34.35,55.95,9.45,34.02,9.931,
07/02/2025,12:08:57.02,-152.83,892.58,-352.05,-0.53,-2.61,5.44,33.75,57.60,9.60,33.88,9.931,
07/02/2025,12:08:57.12,-118.16,902.34,-351.07,-0.78,-1.50,4.70,32.85,57.90,9.90,33.88,9.931,
07/02/2025,12:08:57.22,-148.93,893.07,-353.52,-2.60,3.42,1.76,33.90,56.70,9.90,33.88,9.931,
07/02/2025,12:08:57.32,-112.79,892.58,-341.31,-3.08,2.42,2.69,32.70,56.10,10.35,34.12,9.931,
07/02/2025,12:08:57.42,-131.84,907.71,-346.68,-3.05,0.97,2.63,31.05,58.65,8.70,33.88,9.931,
07/02/2025,12:08:57.52,-116.21,899.41,-354.00,2.10,-3.76,8.08,31.95,56.85,9.30,33.88,9.930,
07/02/2025,12:08:57.62,-125.0,904.30,-351.56,-2.94,3.03,0.73,32.70,58.80,11.85,34.21,9.930,
07/02/2025,12:08:57.72,-112.30,897.46,-357.42,0.15,2.65,2.59,32.55,57.45,10.50,34.02,9.930,
07/02/2025,12:08:57.83,-102.05,902.34,-359.38,-2.37,2.26,3.53,31.35,58.65,10.50,33.97,9.930,
07/02/2025,12:08:57.93,-108.89,909.18,-346.19,-0.15,-0.98,1.58,31.95,58.35,10.80,34.02,9.930,
07/02/2025,12:08:58.03,-110.84,903.81,-354.00,0.80,-2.16,4.82,31.05,58.20,9.90,33.88,9.930,
07/02/2025,12:08:58.13,-93.26,911.13,-354.98,-1.08,0.17,0.60,32.25,57.60,10.80,33.97,9.930,
07/02/2025,12:08:58.23,-106.93,896.48,-343.26,0.44,-1.70,5.12,31.95,58.35,10.35,34.02,9.930,
07/02/2025,12:08:58.33,-109.38,899.90,-356.93,-2.84,4.21,0.21,31.95,57.60,11.55,34.02,9.931,
07/02/2025,12:08:58.43,-104.49,908.69,-356.93,-1.05,1.49,1.02,31.35,57.0,11.70,33.78,9.931,
07/02/2025,12:08:58.53,-113.28,911.62,-350.59,-3.16,0.40,0.29,32.10,57.90,11.25,34.12,9.931,
07/02/2025,12:08:58.63,-101.07,910.64,-337.89,-1.99,-1.60,1.51,32.10,57.90,10.20,34.21,9.931,
07/02/2025,12:08:58.73,-117.68,921.88,-334.96,-1.82,0.66,-2.23,33.30,58.20,10.95,33.97,9.931,
07/02/2025,12:08:58.83,-120.12,913.57,-345.21,0.02,-3.78,-3.63,31.80,57.45,11.25,34.02,9.930,
07/02/2025,12:08:58.93,-137.21,927.73,-350.10,-1.85,-0.27,0.31,32.55,58.95,11.70,33.83,9.930,
07/02/2025,12:08:59.03,-121.58,903.32,-335.94,-0.34,1.87,-2.44,31.95,58.35,10.80,34.02,9.930,
07/02/2025,12:08:59.14,-137.21,893.55,-335.45,-2.18,0.76,-0.89,32.10,56.70,12.0,34.02,9.930,
07/02/2025,12:08:59.24,-140.63,910.64,-333.98,-1.92,-2.12,-0.92,31.50,56.55,11.85,34.12,9.930,
07/02/2025,12:08:59.34,-143.07,897.95,-332.52,-1.53,1.29,-1.85,33.45,57.30,12.15,34.16,9.930,
07/02/2025,12:08:59.44,-133.79,910.64,-346.68,1.28,-1.05,4.89,32.85,57.45,11.25,33.68,9.930,
07/02/2025,12:08:59.54,-140.63,917.97,-330.08,-1.47,3.08,-3.52,33.30,59.70,11.25,33.97,9.930,
07/02/2025,12:08:59.64,-140.63,903.32,-337.40,-2.88,2.76,-2.30,32.85,57.90,10.95,34.12,9.930,
07/02/2025,12:08:59.74,-131.35,910.64,-343.26,1.37,0.83,0.84,33.75,57.60,11.55,34.02,9.931,
07/02/2025,12:08:59.84,-129.88,894.53,-340.33,-0.54,1.59,-1.31,33.0,57.60,11.85,33.88,9.931,
07/02/2025,12:08:59.94,-138.18,913.09,-341.80,-1.49,-2.19,2.44,32.85,58.20,11.25,34.12,9.931,
07/02/2025,12:09:00.04,-129.39,892.09,-335.45,-0.63,1.63,-2.62,31.80,57.90,12.75,34.12,9.930,
07/02/2025,12:09:00.14,-138.67,906.25,-353.52,0.0,-2.27,3.79,32.10,56.70,11.70,33.88,9.930,
07/02/2025,12:09:00.24,-148.44,903.81,-340.82,-2.57,3.08,0.83,32.10,57.45,11.25,34.02,9.930,
07/02/2025,12:09:00.34,-155.27,888.67,-345.70,-0.04,-2.19,-0.90,32.55,55.95,11.25,33.83,9.930,
07/02/2025,12:09:00.45,-141.11,907.71,-348.63,0.36,1.96,0.03,33.0,58.35,11.10,34.21,9.930,
07/02/2025,12:09:00.55,-155.27,894.53,-343.75,0.41,-1.43,2.36,32.55,56.25,10.50,33.97,9.930,
07/02/2025,12:09:00.65,-151.86,904.30,-352.54,-3.27,3.02,-0.76,31.35,55.95,10.95,33.88,9.930,
07/02/2025,12:09:00.75,-151.37,897.95,-352.54,1.86,2.31,1.40,33.30,57.45,12.0,34.02,9.930,
07/02/2025,12:09:00.85,-150.39,896.48,-347.17,-3.16,3.98,0.69,32.25,57.30,11.55,34.02,9.930,
07/02/2025,12:09:00.95,-137.70,890.14,-346.68,-0.34,-4.18,-1.49,33.0,58.35,10.80,33.97,9.930,
07/02/2025,12:09:01.05,-140.14,905.76,-351.56,-3.52,1.95,-0.73,33.60,56.70,11.70,34.12,9.930,
07/02/2025,12:09:01.15,-143.07,883.30,-344.73,1.39,-3.53,0.37,32.25,56.85,11.55,34.16,9.930,
07/02/2025,12:09:01.25,-148.93,910.64,-341.80,0.29,-2.98,1.41,32.85,57.0,10.95,34.02,9.931,
07/02/2025,12:09:01.35,-146.00,898.44,-346.19,-1.19,-1.47,-3.20,33.60,58.95,10.50,34.21,9.930,
07/02/2025,12:09:01.45,-145.02,894.53,-351.56,-2.53,-1.92,3.99,33.30,58.95,10.95,34.02,9.930,
07/02/2025,12:09:01.55,-152.34,896.97,-346.19,-2.66,0.81,-0.95,32.55,57.45,9.90,34.12,9.930,
07/02/2025,12:09:01.65,-148.93,903.32,-334.47,-0.63,-0.81,0.59,33.45,56.10,11.85,34.21,9.930,
07/02/2025,12:09:01.76,-136.72,906.74,-343.75,-2.78,-1.37,-0.35,32.55,58.20,10.20,33.59,9.930,
07/02/2025,12:09:01.86,-134.28,901.37,-339.84,0.65,-4.02,1.66,33.75,57.30,10.80,34.12,9.930,
07/02/2025,12:09:01.96,-155.76,912.60,-352.05,-2.92,3.76,-3.40,32.10,57.90,11.70,33.88,9.930,
07/02/2025,12:09:02.06,-147.46,899.90,-338.38,-0.02,0.85,1.34,32.10,56.70,12.0,34.02,9.930,
07/02/2025,12:09:02.16,-160.64,893.07,-341.80,-1.73,-0.40,-1.95,33.60,57.45,10.95,34.21,9.930,
07/02/2025,12:09:02.26,-149.90,903.81,-343.75,1.21,2.57,3.02,33.45,58.80,10.05,33.78,9.930,
07/02/2025,12:09:02.36,-157.71,900.88,-343.26,-0.90,4.36,-3.08,33.45,58.35,10.80,34.12,9.930,
07/02/2025,12:09:02.46,-151.37,922.36,-330.57,0.29,1.26,4.76,33.60,57.45,10.95,34.02,9.930,
07/02/2025,12:09:02.56,-168.95,892.09,-338.38,-2.95,3.20,1.72,32.70,57.30,11.10,33.97,9.930,
07/02/2025,12:09:02.66,-145.51,896.97,-336.43,-1.98,-4.92,8.31,32.25,56.85,12.60,33.88,9.930,
07/02/2025,12:09:02.76,-148.93,903.32,-329.59,-2.86,-6.15,9.34,32.25,58.35,11.85,34.12,9.930,
07/02/2025,12:09:02.86,-127.44,917.97,-318.85,-7.0,-2.37,4.84,30.90,57.60,11.85,34.02,9.930,
07/02/2025,12:09:02.96,-122.56,936.52,-299.80,-6.05,3.12,-3.05,31.95,58.05,13.35,34.02,9.930,
07/02/2025,12:09:03.07,-130.37,916.99,-292.48,-4.55,2.38,3.23,30.90,58.05,13.95,34.02,9.930,
07/02/2025,12:09:03.17,-111.82,920.90,-298.83,-0.60,2.12,2.53,30.90,58.05,13.65,33.83,9.930,
07/02/2025,12:09:03.27,-125.98,920.90,-277.34,-3.63,2.50,2.53,32.25,56.85,14.40,34.21,9.930,
07/02/2025,12:09:03.37,-112.79,928.71,-295.41,0.58,-1.66,4.79,30.60,58.20,13.50,34.02,9.930,
07/02/2025,12:09:03.47,-125.49,916.99,-300.78,1.12,2.70,0.13,31.35,56.70,13.80,34.02,9.930,
07/02/2025,12:09:03.57,-109.38,928.71,-313.48,2.41,2.08,2.77,30.30,58.95,13.50,34.02,9.930,
07/02/2025,12:09:03.67,-119.63,905.76,-319.82,-1.09,4.27,-1.69,32.10,58.20,12.0,33.88,9.930,
07/02/2025,12:09:03.77,-110.84,923.34,-328.13,4.39,0.89,1.20,31.50,58.35,12.90,34.12,9.930,
07/02/2025,12:09:03.87,-106.93,910.16,-319.82,0.79,-1.15,-3.0,31.35,58.95,12.75,34.16,9.930,
07/02/2025,12:09:03.97,-121.09,905.76,-333.01,0.82,-4.60,5.14,31.35,58.65,12.75,34.02,9.930,
07/02/2025,12:09:04.07,-105.96,906.25,-332.52,-0.60,-2.25,-0.38,30.45,59.10,12.60,34.02,9.930,
07/02/2025,12:09:04.17,-106.45,924.32,-341.31,2.94,0.50,6.46,29.85,55.95,11.25,33.78,9.930,
07/02/2025,12:09:04.28,-83.01,918.46,-325.20,-1.88,1.07,4.65,29.55,58.95,12.75,34.02,9.930,
07/02/2025,12:09:04.38,-95.21,915.53,-332.03,4.34,-4.25,5.43,28.05,58.95,13.05,33.97,9.930,
07/02/2025,12:09:04.48,-88.87,910.16,-333.98,2.42,-5.42,5.66,29.40,59.85,12.90,33.83,9.930,
07/02/2025,12:09:04.58,-83.01,919.92,-355.96,2.73,-13.90,7.13,28.05,60.45,12.45,33.97,9.930,
07/02/2025,12:09:04.68,-69.34,904.79,-354.98,-4.57,-8.94,-2.21,27.90,58.80,13.65,33.97,9.930,
07/02/2025,12:09:04.78,-87.40,921.39,-349.61,-2.65,-9.33,3.90,28.95,59.55,12.60,33.97,9.930,
07/02/2025,12:09:04.88,-83.50,906.25,-336.43,-5.90,-4.79,0.21,28.95,59.10,14.40,33.97,9.930,
07/02/2025,12:09:04.98,-83.01,909.67,-337.40,1.47,-1.98,2.16,28.65,60.30,14.40,33.97,9.930,
07/02/2025,12:09:05.08,-90.33,909.18,-334.96,-3.07,-5.22,7.67,27.15,60.75,14.40,33.88,9.930,
07/02/2025,12:09:05.18,-92.29,905.76,-326.66,-3.07,-4.04,4.60,28.80,61.20,14.85,34.02,9.930,
07/02/2025,12:09:05.28,-62.99,924.32,-314.94,3.51,-11.27,4.45,26.25,61.65,14.55,34.02,9.929,
07/02/2025,12:09:05.38,-70.80,912.60,-326.17,-0.38,-3.11,2.79,25.50,60.45,14.55,34.12,9.930,
07/02/2025,12:09:05.48,-69.82,901.37,-333.01,3.50,-5.32,5.64,26.85,59.85,14.70,34.02,9.930,
07/02/2025,12:09:05.59,-55.66,914.55,-345.70,-0.43,-5.35,4.18,25.50,60.90,15.30,33.68,9.930,
07/02/2025,12:09:05.69,-44.43,926.27,-333.98,-0.10,-7.49,3.33,23.85,61.05,15.75,33.88,9.930,
07/02/2025,12:09:05.79,-62.99,913.57,-325.68,-3.21,-2.16,1.32,23.55,58.80,14.70,34.12,9.930,
07/02/2025,12:09:05.89,-58.11,906.74,-336.43,1.34,-10.55,4.79,23.55,62.55,13.95,34.02,9.930,
07/02/2025,12:09:05.99,-42.48,926.76,-323.24,-3.59,-9.48,4.40,24.0,62.70,16.65,33.88,9.930,
07/02/2025,12:09:06.09,-57.13,912.60,-315.92,-4.02,-6.45,7.35,22.80,61.80,16.50,33.78,9.930,
07/02/2025,12:09:06.19,-46.39,916.02,-333.50,-1.06,-3.95,5.58,21.75,63.45,15.60,34.02,9.930,
07/02/2025,12:09:06.29,-28.81,910.64,-341.31,6.14,-3.35,1.68,21.30,63.30,15.75,34.02,9.930,
07/02/2025,12:09:06.39,-58.11,919.92,-343.75,-1.37,-4.61,5.40,20.40,62.70,16.35,33.97,9.930,
07/02/2025,12:09:06.49,-45.41,901.86,-337.40,0.37,-3.83,0.16,20.70,61.95,16.65,33.88,9.930,
07/02/2025,12:09:06.59,-47.36,917.48,-349.61,-1.96,-1.91,1.93,20.40,63.45,16.35,33.88,9.929,
07/02/2025,12:09:06.69,-40.53,923.34,-346.19,-1.98,-0.56,-1.08,20.40,61.95,16.35,34.02,9.929,
07/02/2025,12:09:06.79,-36.13,905.76,-337.40,0.26,-0.18,2.02,21.60,61.50,17.25,34.21,9.930,
07/02/2025,12:09:06.90,-42.97,926.76,-336.43,-5.20,-3.65,-3.39,21.60,61.05,19.05,33.83,9.930,
07/02/2025,12:09:07.00,-22.95,935.06,-320.31,-5.74,-1.81,-0.78,20.40,62.70,17.10,33.97,9.930,
07/02/2025,12:09:07.10,-61.52,897.46,-323.73,-5.74,3.71,-7.42,21.30,61.80,18.30,34.02,9.930,
07/02/2025,12:09:07.20,-38.57,876.95,-325.20,3.89,5.52,1.67,21.45,61.20,17.10,34.02,9.930,
07/02/2025,12:09:07.30,-63.48,942.38,-324.71,1.61,3.27,-3.55,23.85,61.80,15.75,33.97,9.930,
07/02/2025,12:09:07.40,-70.31,926.76,-326.17,0.87,-4.27,2.44,22.05,62.25,15.75,34.02,9.930,
07/02/2025,12:09:07.50,-65.43,921.88,-347.66,0.74,-2.02,-1.17,22.35,62.55,15.75,33.83,9.930,
07/02/2025,12:09:07.60,-53.22,916.99,-341.80,-0.60,1.05,0.62,21.30,62.25,16.20,33.88,9.930,
07/02/2025,12:09:07.70,-64.94,913.57,-341.31,0.17,6.12,-1.14,21.75,59.70,16.65,33.88,9.930,
07/02/2025,12:09:07.80,-56.64,915.53,-344.24,0.99,-1.88,1.95,22.80,63.0,16.20,33.97,9.930,
07/02/2025,12:09:07.90,-73.24,901.86,-339.36,-1.10,2.53,-0.98,21.30,62.25,16.20,34.02,9.929,
07/02/2025,12:09:08.00,-64.45,920.41,-343.75,0.16,1.96,-0.34,22.05,62.25,15.75,33.78,9.929,
07/02/2025,12:09:08.10,-58.59,911.62,-343.75,-0.05,-0.03,2.98,22.50,59.40,16.35,34.02,9.929,
07/02/2025,12:09:08.21,-52.25,911.62,-333.50,-2.04,2.22,1.05,22.05,63.0,16.20,33.59,9.930,
07/02/2025,12:09:08.31,-34.67,907.23,-337.40,0.80,0.44,1.43,20.40,62.40,17.10,33.68,9.930,
07/02/2025,12:09:08.41,-72.27,917.48,-328.13,-1.92,3.77,-1.37,22.05,61.50,15.75,33.83,9.930,
07/02/2025,12:09:08.51,-72.27,911.62,-342.77,3.02,-1.27,5.06,20.40,60.90,15.60,34.02,9.930,
07/02/2025,12:09:08.61,-43.95,915.53,-351.56,0.32,-0.60,-2.76,21.75,61.65,16.65,34.16,9.930,
07/02/2025,12:09:08.71,-37.60,925.29,-346.68,0.24,-2.02,0.12,21.45,63.15,17.85,34.02,9.930,
07/02/2025,12:09:08.81,-64.45,915.04,-339.84,-1.04,7.33,-0.29,22.95,61.65,16.65,34.02,9.930,
07/02/2025,12:09:08.91,-43.95,910.64,-344.24,-1.55,0.34,2.35,22.50,62.40,16.35,33.78,9.930,
07/02/2025,12:09:09.01,-50.78,914.55,-337.89,-4.09,1.17,-1.63,21.45,63.90,16.35,33.88,9.930,
07/02/2025,12:09:09.11,-56.64,909.67,-338.38,2.20,-2.40,0.75,22.80,62.25,17.25,34.12,9.930,
07/02/2025,12:09:09.21,-45.90,910.64,-337.89,-3.32,1.27,-1.61,22.35,61.80,16.20,33.88,9.929,
07/02/2025,12:09:09.31,-50.78,920.90,-338.38,0.92,-3.99,-0.98,22.20,62.70,15.30,33.83,9.929,
07/02/2025,12:09:09.42,-54.69,911.13,-341.31,-0.77,-0.56,-1.24,23.25,63.45,16.35,33.83,9.929,
07/02/2025,12:09:09.52,-56.15,913.09,-349.61,0.51,1.25,1.31,21.75,63.15,17.40,34.02,9.929,
07/02/2025,12:09:09.62,-44.43,914.06,-345.70,-2.15,2.84,-1.94,20.85,61.80,14.70,33.88,9.930,
07/02/2025,12:09:09.72,-58.59,913.57,-338.38,-2.73,0.19,-0.39,20.70,62.70,16.05,33.97,9.930,
07/02/2025,12:09:09.82,-43.46,914.06,-338.38,-0.60,0.80,2.77,22.95,64.35,16.05,34.21,9.930,
07/02/2025,12:09:09.92,-53.71,916.99,-339.84,-4.85,-0.49,1.76,21.15,63.45,17.10,34.02,9.930,
07/02/2025,12:09:10.02,-66.89,905.76,-336.91,1.56,-3.50,0.51,21.60,62.25,16.50,34.12,9.930,
07/02/2025,12:09:10.12,-54.20,907.71,-337.89,0.66,2.59,0.14,20.55,62.55,17.55,34.02,9.930,
07/02/2025,12:09:10.22,-53.71,927.25,-341.80,1.47,2.44,0.74,21.15,61.95,17.10,33.88,9.930,
07/02/2025,12:09:10.32,-56.15,922.85,-328.61,-1.49,3.95,-0.78,20.10,62.55,17.25,33.68,9.930,
07/02/2025,12:09:10.42,-61.52,914.06,-338.38,-0.02,-3.37,2.01,21.30,61.80,15.45,33.97,9.930,
07/02/2025,12:09:10.52,-44.43,914.06,-342.29,-3.75,1.25,-0.18,21.60,61.80,16.50,34.02,9.929,
07/02/2025,12:09:10.62,-55.66,909.18,-345.70,0.85,-3.10,2.11,20.10,62.25,16.50,33.97,9.929,
07/02/2025,12:09:10.73,-41.02,926.76,-337.89,-2.98,2.96,0.12,19.95,61.65,16.05,34.16,9.929,
07/02/2025,12:09:10.83,-55.18,904.30,-339.36,1.79,-1.02,1.03,21.30,63.30,15.75,33.64,9.929,
07/02/2025,12:09:10.93,-42.48,912.11,-333.98,-1.46,2.16,2.44,21.60,61.50,16.95,34.12,9.929,
07/02/2025,12:09:11.03,-40.04,910.64,-344.73,-1.09,3.07,1.31,21.75,60.90,16.05,33.88,9.930,
07/02/2025,12:09:11.13,-52.25,911.62,-345.70,1.25,-4.81,3.33,21.45,61.20,14.55,33.88,9.930,
07/02/2025,12:09:11.23,-46.88,917.97,-338.87,-1.27,2.78,-1.64,20.85,62.55,14.70,33.78,9.930,
07/02/2025,12:09:11.33,-61.52,911.13,-351.56,0.98,-0.79,3.11,20.70,61.65,14.85,33.97,9.930,
07/02/2025,12:09:11.43,-38.57,919.92,-345.21,-3.23,2.66,-1.86,20.55,61.80,18.0,34.02,9.930,
07/02/2025,12:09:11.53,-47.36,915.53,-345.70,0.0,-0.63,1.08,21.15,62.40,16.05,33.97,9.930,
07/02/2025,12:09:11.63,-53.22,896.97,-344.24,-1.94,1.73,-2.14,20.10,64.05,16.95,34.02,9.930,
07/02/2025,12:09:11.73,-35.16,909.67,-342.29,0.24,2.15,0.31,21.45,61.95,17.10,33.64,9.930,
07/02/2025,12:09:11.83,-41.99,911.13,-343.26,-0.40,2.96,-1.92,21.60,62.25,16.20,34.02,9.929,
07/02/2025,12:09:11.93,-50.29,896.48,-344.24,-0.65,1.89,0.62,21.75,61.95,17.10,33.64,9.929,
07/02/2025,12:09:12.04,-45.90,922.85,-352.54,-0.47,-1.61,0.55,21.15,63.15,18.45,34.12,9.929,
07/02/2025,12:09:12.14,-46.88,911.62,-331.05,-5.42,-0.31,-2.52,22.80,61.50,16.50,33.88,9.929,
07/02/2025,12:09:12.24,-52.73,902.34,-348.14,1.37,0.63,0.15,21.75,63.15,18.15,33.83,9.929,
07/02/2025,12:09:12.34,-35.64,927.73,-330.08,-1.06,4.96,0.10,20.70,61.95,16.05,33.88,9.929,
07/02/2025,12:09:12.44,-66.41,901.86,-343.26,0.61,-2.33,3.22,21.75,63.15,18.45,34.02,9.930,
07/02/2025,12:09:12.54,-46.39,907.71,-346.68,0.21,3.12,1.70,19.65,61.20,16.35,34.02,9.930,
07/02/2025,12:09:12.64,-26.86,919.92,-338.87,0.24,1.48,2.43,21.30,62.25,17.25,33.88,9.930,
07/02/2025,12:09:12.74,-47.85,906.74,-351.07,-1.02,2.76,-3.86,19.95,63.15,15.60,33.83,9.930,
07/02/2025,12:09:12.84,-35.16,910.64,-346.68,-1.52,2.17,4.54,20.85,63.0,15.45,33.88,9.930,
07/02/2025,12:09:12.94,-34.18,916.50,-341.31,-2.29,2.11,-0.41,20.10,61.80,16.50,34.12,9.930,
07/02/2025,12:09:13.04,-30.27,911.13,-346.19,-2.03,2.94,-1.42,21.15,63.15,16.65,34.02,9.929,
07/02/2025,12:09:13.14,-33.20,914.06,-353.52,-0.19,-1.29,0.90,20.40,61.95,15.30,33.88,9.929,
07/02/2025,12:09:13.24,-41.50,904.79,-346.68,-3.98,3.39,-0.35,20.40,62.40,16.05,34.16,9.929,
07/02/2025,12:09:13.35,-43.95,918.46,-332.52,-1.96,-1.79,2.73,20.40,63.15,16.05,33.97,9.929,
07/02/2025,12:09:13.45,-40.53,928.71,-338.38,-1.58,-1.60,1.74,21.15,61.95,16.65,34.02,9.929,
07/02/2025,12:09:13.55,-24.41,916.99,-341.80,0.46,0.68,1.10,20.70,62.40,15.60,33.78,9.929,
07/02/2025,12:09:13.65,-39.55,913.57,-344.73,-0.76,2.39,-3.02,19.65,61.65,16.65,33.83,9.929,
07/02/2025,12:09:13.75,-50.78,911.62,-338.38,-2.53,0.83,2.02,20.40,62.70,16.05,34.21,9.929,
07/02/2025,12:09:13.85,-29.79,919.43,-340.82,-2.30,0.95,-0.55,21.30,65.25,15.15,34.02,9.929,
07/02/2025,12:09:13.95,-23.93,907.23,-332.03,-1.04,1.87,3.94,20.85,63.0,16.95,33.97,9.930,
07/02/2025,12:09:14.05,-43.95,912.11,-336.43,0.34,-1.86,-2.22,19.50,61.80,15.45,34.21,9.930,
07/02/2025,12:09:14.15,-35.64,922.85,-341.31,-1.18,1.99,-0.99,22.35,63.30,15.45,34.02,9.930,
07/02/2025,12:09:14.25,-29.30,920.90,-340.33,0.22,-1.73,3.63,19.50,62.55,17.25,33.88,9.930,
07/02/2025,12:09:14.35,-22.95,916.99,-343.26,-1.18,3.98,-4.34,20.10,61.80,16.20,34.12,9.929,
07/02/2025,12:09:14.45,-41.99,910.16,-331.05,-0.42,-0.56,1.21,20.55,61.50,15.45,33.88,9.929,
07/02/2025,12:09:14.55,-21.97,913.09,-324.71,-3.46,2.43,-1.86,21.60,61.05,16.95,33.78,9.929,
07/02/2025,12:09:14.66,-35.64,898.93,-337.89,-0.82,-0.47,7.40,20.10,62.55,16.20,34.02,9.929,
07/02/2025,12:09:14.76,-55.66,941.41,-344.73,-6.70,-0.81,-0.73,20.10,63.30,16.95,33.88,9.929,
07/02/2025,12:09:14.86,-19.53,930.18,-293.95,-9.31,2.79,0.17,20.85,62.25,16.50,34.02,9.929,
07/02/2025,12:09:14.96,-27.83,895.02,-320.80,-3.13,5.76,-0.82,20.10,63.0,18.0,33.97,9.929,
07/02/2025,12:09:15.06,-73.24,908.20,-319.82,-0.14,0.47,2.19,21.15,63.15,16.65,33.97,9.929,
07/02/2025,12:09:15.16,-9.28,910.16,-316.41,-0.38,-3.76,0.84,21.15,62.40,18.90,33.88,9.929,
07/02/2025,12:09:15.26,-64.94,916.99,-323.24,-2.98,4.76,-4.04,20.40,61.20,18.15,33.88,9.929,
07/02/2025,12:09:15.36,-21.48,934.57,-313.96,0.59,1.60,1.99,21.75,60.90,17.40,33.78,9.930,
07/02/2025,12:09:15.46,-62.99,926.76,-312.50,-0.69,3.57,-6.49,21.30,61.05,16.50,34.16,9.930,
07/02/2025,12:09:15.56,-44.43,912.60,-323.24,3.05,-0.05,1.73,21.45,60.90,16.35,34.02,9.930,
07/02/2025,12:09:15.66,-48.34,925.78,-326.17,-0.43,-1.18,0.20,19.80,61.50,18.0,33.88,9.929,
07/02/2025,12:09:15.76,-55.66,919.92,-313.96,-1.26,-0.99,-2.66,22.05,61.80,18.0,33.97,9.929,
07/02/2025,12:09:15.86,-34.18,920.41,-324.22,1.14,0.24,1.18,20.55,62.55,16.95,33.97,9.929,
07/02/2025,12:09:15.96,-51.27,922.36,-322.75,-1.88,4.89,-1.79,21.60,61.80,17.25,33.88,9.929,
07/02/2025,12:09:16.07,-44.43,926.76,-324.22,-0.56,-1.35,-0.40,19.95,63.45,18.15,33.97,9.929,
07/02/2025,12:09:16.17,-49.32,922.85,-324.71,0.94,1.13,0.47,21.75,63.15,17.85,34.31,9.929,
07/02/2025,12:09:16.27,-44.43,912.11,-325.20,-0.05,-1.21,-0.43,21.75,62.40,17.85,33.83,9.929,
07/02/2025,12:09:16.37,-42.48,912.11,-329.10,-1.39,3.0,-0.44,21.30,61.05,16.95,34.21,9.929,
07/02/2025,12:09:16.47,-17.58,916.99,-320.80,-3.78,1.08,-0.11,20.40,62.70,17.10,34.12,9.929,
07/02/2025,12:09:16.57,-40.04,910.16,-324.22,3.28,-0.56,3.89,20.55,62.55,16.50,34.02,9.929,
07/02/2025,12:09:16.67,-47.85,922.36,-334.47,2.40,-1.02,0.12,21.15,63.45,17.10,33.83,9.929,
07/02/2025,12:09:16.77,-28.81,907.23,-342.29,3.73,1.17,3.79,20.55,61.50,16.20,34.02,9.930,
07/02/2025,12:09:16.87,-48.83,920.41,-340.82,-0.73,-3.41,-0.25,21.45,60.90,16.65,33.97,9.930,
07/02/2025,12:09:16.97,-32.71,904.79,-336.43,1.92,-2.01,4.07,21.30,63.0,16.20,33.97,9.929,
07/02/2025,12:09:17.07,-44.43,920.41,-346.68,-3.26,5.65,-2.68,21.45,63.15,17.10,34.02,9.929,
07/02/2025,12:09:17.17,-46.39,897.95,-333.50,-1.84,2.21,-1.85,20.55,62.55,17.55,33.88,9.929,
07/02/2025,12:09:17.28,-65.43,930.66,-343.75,-5.79,-4.14,-0.13,19.95,62.40,16.05,34.02,9.929,
07/02/2025,12:09:17.38,-32.71,907.23,-318.36,-6.21,7.54,-3.56,19.05,63.0,17.25,34.12,9.929,
07/02/2025,12:09:17.48,-22.95,905.27,-332.52,0.95,-1.47,6.74,20.55,62.55,18.0,33.83,9.929,
07/02/2025,12:09:17.58,-17.58,947.75,-314.45,-6.44,4.64,-1.37,20.55,61.80,17.25,33.78,9.929,
07/02/2025,12:09:17.68,-61.52,870.61,-339.36,1.27,-0.73,-0.86,21.30,63.0,16.95,33.83,9.929,
07/02/2025,12:09:17.78,34.18,930.66,-235.35,-3.24,11.39,-7.10,20.40,62.40,17.40,33.88,9.929,
07/02/2025,12:09:17.88,-10.25,938.96,-368.16,8.07,3.53,8.33,21.15,62.40,18.45,33.97,9.929,
07/02/2025,12:09:17.98,-66.41,918.95,-333.50,-7.41,-1.66,1.15,22.05,60.75,16.95,33.97,9.929,
07/02/2025,12:09:18.08,-11.23,932.13,-308.59,-5.47,-2.74,2.82,20.85,62.25,17.25,34.02,9.929,
07/02/2025,12:09:18.18,-29.79,903.81,-333.01,-3.78,-1.60,-1.59,20.10,62.55,16.95,33.68,9.930,
07/02/2025,12:09:18.28,-24.41,920.41,-319.82,-3.44,0.68,-0.91,19.65,63.45,17.40,34.02,9.929,
07/02/2025,12:09:18.38,-23.93,927.73,-315.92,-1.11,0.28,0.34,21.45,64.35,17.85,34.02,9.929,
07/02/2025,12:09:18.48,-28.32,920.41,-321.78,-2.41,2.59,-1.79,21.45,61.65,16.05,33.88,9.929,
07/02/2025,12:09:18.59,-47.36,920.90,-311.52,2.61,-3.62,0.34,21.45,61.65,18.15,34.02,9.929,
07/02/2025,12:09:18.69,-20.51,920.90,-327.15,-3.66,-1.86,1.91,21.30,62.25,17.55,34.12,9.929,
07/02/2025,12:09:18.79,-41.02,906.25,-319.34,-1.25,1.05,2.27,19.80,63.75,17.55,33.97,9.929,
07/02/2025,12:09:18.89,-43.46,935.55,-322.27,-1.08,-3.19,0.63,22.20,62.70,17.10,33.97,9.929,
07/02/2025,12:09:18.99,-38.09,928.22,-313.96,-2.84,2.89,-2.58,21.30,62.25,16.95,33.83,9.929,
07/02/2025,12:09:19.09,-53.71,908.69,-322.27,-1.35,-0.91,-0.98,21.45,61.95,17.40,34.12,9.929,
07/02/2025,12:09:19.19,-43.46,928.22,-328.61,0.21,2.44,-3.40,21.15,62.70,17.85,34.02,9.929,
07/02/2025,12:09:19.29,-39.55,926.27,-321.78,1.57,1.51,-2.18,19.80,63.0,16.20,33.88,9.929,
07/02/2025,12:09:19.39,-44.43,888.18,-335.94,-0.04,2.26,-3.02,22.05,61.50,17.55,33.78,9.929,
07/02/2025,12:09:19.49,-30.27,921.88,-327.15,1.25,-0.11,-1.38,20.85,62.25,17.25,33.78,9.929,
07/02/2025,12:09:19.59,-31.74,917.48,-342.29,2.60,1.88,0.56,20.10,62.55,16.95,34.02,9.929,
07/02/2025,12:09:19.69,-68.36,902.83,-332.03,-0.15,0.44,-1.31,22.35,64.05,15.45,33.97,9.929,
07/02/2025,12:09:19.79,-31.74,923.34,-345.21,0.50,-0.20,3.20,20.70,63.45,15.30,33.78,9.929,
07/02/2025,12:09:19.90,-32.23,903.81,-347.66,-2.05,-0.89,0.49,21.45,63.45,17.40,33.97,9.929,
07/02/2025,12:09:20.00,-44.43,906.25,-345.21,-1.73,3.40,-1.31,20.85,61.50,15.45,34.02,9.929,
07/02/2025,12:09:20.10,-49.32,926.27,-331.54,-2.22,1.91,-1.63,21.45,61.95,14.85,34.12,9.929,
07/02/2025,12:09:20.20,-31.74,916.99,-344.24,-1.16,-0.56,2.96,22.05,62.55,16.95,34.12,9.929,
07/02/2025,12:09:20.30,-41.02,915.53,-341.31,1.37,-1.69,2.31,21.60,63.0,16.20,33.88,9.929,
07/02/2025,12:09:20.40,-37.60,930.66,-331.05,-3.0,0.15,-1.88,20.70,60.90,17.10,33.97,9.929,
07/02/2025,12:09:20.50,-43.46,904.79,-343.75,0.07,-1.04,-0.19,21.60,61.80,16.50,33.83,9.929,
07/02/2025,12:09:20.60,-53.22,928.22,-342.77,-1.29,1.38,-1.56,20.55,62.55,16.20,34.12,9.929,
07/02/2025,12:09:20.70,-49.80,919.92,-333.50,-3.53,-3.27,3.33,21.60,61.50,16.50,33.64,9.929,
07/02/2025,12:09:20.80,-37.11,921.88,-335.45,-2.38,5.92,-4.89,20.70,62.40,17.10,33.88,9.929,
07/02/2025,12:09:20.90,-37.60,913.57,-331.05,-2.14,4.87,-2.55,20.10,62.55,16.20,34.02,9.929,
07/02/2025,12:09:21.00,-46.39,922.36,-348.14,1.04,-3.41,4.20,22.50,61.20,16.65,33.97,9.929,
07/02/2025,12:09:21.10,-43.46,906.74,-342.77,-0.11,1.78,-1.87,22.20,62.40,15.60,33.64,9.929,
07/02/2025,12:09:21.21,-39.55,920.90,-339.36,0.69,-0.59,3.82,21.60,61.80,16.95,33.83,9.929,
07/02/2025,12:09:21.31,-35.64,925.29,-342.77,-2.75,2.75,-0.16,20.70,63.15,18.15,34.12,9.929,
07/02/2025,12:09:21.41,-49.80,916.02,-343.26,-0.11,1.99,-4.60,21.45,62.40,14.85,34.02,9.929,
07/02/2025,12:09:21.51,-48.83,910.16,-344.24,1.87,-0.73,5.10,20.70,61.20,15.60,33.68,9.929,
07/02/2025,12:09:21.61,-47.36,916.50,-338.87,-4.83,-4.20,-3.24,21.15,63.90,16.05,34.02,9.929,
07/02/2025,12:09:21.71,-41.50,919.92,-333.01,0.77,1.81,0.31,21.15,61.95,16.35,34.02,9.929,
07/02/2025,12:09:21.81,-37.11,905.76,-348.14,0.01,-0.51,1.80,22.50,61.20,16.35,34.12,9.929,
07/02/2025,12:09:21.91,-30.76,925.78,-338.87,-1.62,2.60,0.25,21.30,63.30,16.20,33.83,9.929,
07/02/2025,12:09:22.01,-46.88,911.13,-338.38,-3.89,-0.60,0.74,20.70,62.40,15.60,33.64,9.929,
07/02/2025,12:09:22.11,-32.23,915.53,-339.36,0.61,4.59,0.42,20.55,61.80,15.75,34.12,9.929,
07/02/2025,12:09:22.21,-57.62,913.57,-333.50,1.67,0.24,1.85,21.30,61.50,16.20,34.02,9.929,
07/02/2025,12:09:22.31,-47.85,908.20,-336.91,0.91,0.62,0.43,20.55,63.0,16.50,33.97,9.929,
07/02/2025,12:09:22.41,-46.39,931.15,-338.87,-0.55,-5.04,3.29,22.20,62.70,16.65,33.64,9.929,
07/02/2025,12:09:22.52,-39.55,919.43,-329.10,-3.87,2.70,-1.69,20.85,61.50,15.45,33.97,9.929,
07/02/2025,12:09:22.62,-36.13,919.92,-331.54,1.60,-0.66,-3.75,20.55,62.55,16.20,33.88,9.929,
07/02/2025,12:09:22.72,-49.32,899.90,-332.03,-2.97,2.57,-4.56,22.05,61.80,16.95,34.12,9.929,
07/02/2025,12:09:22.82,-38.57,928.22,-340.82,0.98,-2.50,0.11,21.60,62.55,16.50,34.02,9.929,
07/02/2025,12:09:22.92,-60.55,920.41,-344.73,-0.15,-5.44,1.12,21.45,61.95,16.35,33.64,9.929,
07/02/2025,12:09:23.02,-11.23,919.92,-334.47,-4.01,3.19,0.42,21.45,62.70,16.35,33.97,9.929,
07/02/2025,12:09:23.12,-46.39,906.74,-330.57,-0.34,2.11,-1.07,21.60,61.05,15.15,33.88,9.929,
07/02/2025,12:09:23.22,-44.92,903.32,-328.13,0.14,2.15,0.05,22.35,62.55,16.50,34.02,9.929,
07/02/2025,12:09:23.32,-47.85,889.16,-336.91,-0.75,-0.36,0.72,21.45,61.65,17.10,33.68,9.929,
07/02/2025,12:09:23.42,-39.55,927.73,-342.77,-0.33,-3.91,1.11,20.55,61.50,16.50,33.97,9.929,
07/02/2025,12:09:23.52,-26.37,931.15,-337.40,1.12,-0.71,1.24,20.85,62.55,15.75,33.97,9.929,
07/02/2025,12:09:23.62,-44.92,906.25,-323.73,-2.79,6.56,-2.13,21.15,61.65,16.65,33.97,9.929,
07/02/2025,12:09:23.72,-59.57,917.97,-327.64,1.73,2.62,-0.45,20.10,61.80,16.95,33.97,9.929,
07/02/2025,12:09:23.83,-35.16,907.23,-333.01,-3.13,0.17,-0.24,20.70,60.90,17.10,33.78,9.929,
07/02/2025,12:09:23.93,-70.80,925.78,-339.36,-1.70,-7.43,0.76,21.75,61.20,15.60,33.83,9.929,
07/02/2025,12:09:24.03,-25.39,940.92,-327.64,-3.70,-4.57,3.66,21.45,63.45,17.10,33.97,9.929,
07/02/2025,12:09:24.13,-43.46,926.27,-317.87,-6.08,6.61,-4.44,22.50,62.70,17.40,33.88,9.929,
07/02/2025,12:09:24.23,-71.78,892.58,-321.29,2.56,5.40,1.83,22.95,61.65,17.85,33.64,9.929,
07/02/2025,12:09:24.33,-35.64,921.39,-333.01,-0.45,-2.12,-0.02,21.60,61.50,17.25,33.83,9.929,
07/02/2025,12:09:24.43,-54.20,905.27,-325.68,-1.08,-7.21,5.44,19.50,62.25,17.25,33.88,9.929,
07/02/2025,12:09:24.53,-34.18,936.04,-335.94,-5.73,-1.31,-4.49,20.55,61.80,16.20,34.02,9.929,
07/02/2025,12:09:24.63,-40.04,925.78,-314.94,-3.24,4.82,-2.59,21.75,61.65,17.40,33.78,9.929,
07/02/2025,12:09:24.73,-60.55,926.76,-318.36,1.60,4.37,-2.64,21.45,61.95,17.10,33.88,9.929,
07/02/2025,12:09:24.83,-58.11,901.86,-331.05,-1.21,-1.33,-0.03,21.60,61.50,16.95,34.21,9.929,
07/02/2025,12:09:24.93,-52.25,925.29,-338.87,0.82,-4.64,1.24,21.60,63.0,17.25,34.12,9.929,
07/02/2025,12:09:25.03,-48.83,914.55,-322.27,-1.84,2.62,1.05,21.60,61.05,16.20,34.02,9.929,
