rtcDate,rtcTime,aX,aY,aZ,gX,gY,gZ,mX,mY,mZ,imu_degC,output_Hz,
01/01/2000,00:00:01.33,870.12,-144.53,-494.63,-2.12,-6.63,1.24,-37.65,30.45,-6.60,29.13,0.0,
01/01/2000,00:00:01.43,849.12,-138.18,-516.11,3.89,-11.42,-9.46,-36.75,31.50,-7.20,29.04,20.0,
01/01/2000,00:00:01.53,838.87,-115.72,-531.74,-0.46,-26.18,-8.77,-36.0,30.30,-9.30,29.56,15.0,
01/01/2000,00:00:01.64,827.64,-115.23,-560.06,0.87,-7.93,-3.95,-36.30,31.50,-10.05,29.28,12.903,
01/01/2000,00:00:01.74,792.48,-117.19,-545.41,0.53,3.90,-1.63,-35.10,31.65,-11.70,29.08,12.195,
01/01/2000,00:00:01.84,818.85,-125.49,-565.43,-0.58,-2.75,0.73,-33.60,33.15,-10.95,29.47,11.765,
01/01/2000,00:00:01.94,812.50,-119.63,-576.66,-3.69,-0.73,0.43,-34.65,30.45,-11.70,29.47,11.475,
01/01/2000,00:00:02.03,823.24,-125.49,-571.29,0.38,-3.52,4.69,-35.25,32.25,-11.85,29.56,11.429,
01/01/2000,00:00:02.13,820.80,-115.23,-580.08,-1.42,-0.85,2.29,-34.50,32.55,-11.85,29.13,11.250,
01/01/2000,00:00:02.23,798.34,-111.82,-561.04,0.37,-0.01,1.85,-35.10,31.20,-13.50,29.56,11.111,
01/01/2000,00:00:02.33,815.43,-109.86,-583.01,0.27,-0.73,1.53,-35.55,30.75,-9.60,29.13,10.891,
01/01/2000,00:00:02.43,804.69,-119.63,-580.08,1.02,1.52,-2.05,-34.65,31.95,-12.75,29.61,10.811,
01/01/2000,00:00:02.53,804.20,-125.0,-563.48,-1.59,5.45,0.33,-34.50,31.50,-11.55,29.08,10.744,
01/01/2000,00:00:02.64,799.80,-119.14,-579.10,3.60,9.56,1.56,-34.65,33.15,-11.25,29.37,10.687,
01/01/2000,00:00:02.74,801.27,-124.02,-639.16,19.48,64.49,15.71,-35.10,30.15,-9.90,29.47,10.638,
01/01/2000,00:00:02.84,645.02,-17.09,-114.75,-0.73,179.26,-33.98,-36.30,31.05,4.65,29.42,10.596,
01/01/2000,00:00:02.94,1165.53,-25.39,303.71,39.80,250.13,-36.58,-33.60,34.65,18.45,29.56,10.559,
01/01/2000,00:00:03.04,605.47,-25.88,878.91,33.46,250.13,19.90,-16.65,38.85,39.45,29.56,10.526,
01/01/2000,00:00:03.14,321.78,77.15,902.83,22.21,163.30,11.98,-1.20,39.60,46.35,29.28,10.497,
01/01/2000,00:00:03.24,82.03,27.34,880.37,10.41,103.75,5.97,8.25,40.05,47.70,29.37,10.471,
01/01/2000,00:00:03.34,2.93,64.45,885.25,30.86,-9.36,39.17,10.20,41.25,49.05,29.75,10.448,
01/01/2000,00:00:03.44,116.21,143.07,1999.94,-39.63,-238.49,2.79,3.60,43.65,45.75,29.47,10.427,
01/01/2000,00:00:03.54,178.71,45.90,1144.04,17.24,72.82,-6.02,-2.10,42.45,45.75,29.56,10.407,
01/01/2000,00:00:03.64,884.77,250.98,1521.97,-17.31,-183.13,54.92,-0.90,44.85,45.90,29.56,10.390,
01/01/2000,00:00:03.74,520.51,34.18,1050.78,13.91,-5.18,-29.50,-23.70,43.05,31.50,29.80,10.373,
01/01/2000,00:00:03.84,794.92,62.99,609.38,20.69,0.25,1.55,-23.55,44.70,32.70,29.56,10.359,
01/01/2000,00:00:03.94,513.67,-16.11,1004.88,14.59,-14.20,30.27,-23.55,45.45,30.90,29.56,10.305,
01/01/2000,00:00:04.04,777.83,96.68,791.99,-21.38,14.52,-21.37,-25.20,44.55,30.0,29.75,10.294,
01/01/2000,00:00:04.14,748.54,24.90,466.80,-16.29,27.44,9.24,-23.10,42.90,32.40,29.61,10.284,
01/01/2000,00:00:04.24,760.25,54.20,741.21,-10.24,133.20,-10.08,-21.45,43.35,34.80,29.56,10.274,
01/01/2000,00:00:04.35,476.07,-90.82,554.69,-11.19,219.80,-34.40,-12.0,42.45,42.90,29.61,10.265,
01/01/2000,00:00:04.45,264.16,62.50,943.36,18.08,142.37,-23.85,0.30,42.90,47.55,29.75,10.256,
01/01/2000,00:00:04.55,193.36,38.57,1003.91,12.64,45.01,7.82,6.30,44.10,48.90,29.95,10.248,
01/01/2000,00:00:04.65,3.91,174.80,998.05,4.03,32.35,-2.10,9.15,44.70,48.60,29.80,10.241,
01/01/2000,00:00:04.75,-62.50,74.71,1038.09,-2.78,15.34,-8.42,10.35,44.55,50.25,29.80,10.234,
01/01/2000,00:00:04.85,-21.97,59.08,982.91,4.77,7.63,-2.81,11.85,44.85,48.45,29.61,10.227,
01/01/2000,00:00:04.95,-27.83,68.36,1010.25,-20.90,0.16,-3.40,11.70,44.70,50.10,29.56,10.221,
01/01/2000,00:00:05.05,-62.99,42.97,1013.18,-9.45,9.29,-0.05,12.45,44.40,50.25,29.61,10.215,
01/01/2000,00:00:05.15,-85.45,29.79,1023.44,-7.24,9.46,1.64,13.35,43.80,50.25,29.80,10.209,
01/01/2000,00:00:05.25,-86.43,5.37,1025.88,-3.59,5.24,2.20,13.20,43.20,50.40,29.66,10.204,
01/01/2000,00:00:05.35,-123.05,16.11,1015.14,0.54,-0.73,-0.55,11.85,42.30,50.70,29.80,10.199,
01/01/2000,00:00:05.45,-138.18,0.0,1007.32,-5.37,5.07,-3.15,14.85,42.60,51.75,29.99,10.194,
01/01/2000,00:00:05.55,-115.72,21.97,1005.37,-1.37,-2.05,0.57,13.05,41.85,49.95,29.95,10.190,
01/01/2000,00:00:05.65,-26.37,21.48,1058.11,11.74,-36.70,-0.50,13.35,43.05,49.95,29.75,10.162,
01/01/2000,00:00:05.75,62.99,52.25,956.05,2.30,5.78,5.63,6.90,45.45,49.35,29.66,10.158,
01/01/2000,00:00:05.85,83.98,88.87,1055.18,6.14,-10.26,3.41,7.35,44.70,49.80,29.99,10.155,
01/01/2000,00:00:05.95,75.20,67.38,1041.99,16.33,-34.08,6.50,6.0,46.05,48.45,30.09,10.151,
01/01/2000,00:00:06.06,123.54,134.77,948.24,21.17,-68.56,14.20,1.05,47.70,46.80,29.80,10.148,
01/01/2000,00:00:06.16,250.0,149.90,985.35,-8.92,-34.21,23.82,-3.30,48.60,45.45,29.90,10.145,
01/01/2000,00:00:06.26,369.63,121.09,949.22,5.54,-95.45,9.89,-7.35,47.40,44.70,29.95,10.142,
01/01/2000,00:00:06.36,408.69,99.12,970.70,-2.23,-15.55,0.78,-9.75,47.25,43.35,29.47,10.139,
01/01/2000,00:00:06.46,430.66,108.40,921.39,-0.33,-3.79,1.82,-10.05,45.75,44.10,29.90,10.136,
01/01/2000,00:00:06.56,458.50,104.98,896.97,-1.51,-1.80,-0.33,-11.70,47.70,42.90,29.95,10.134,
01/01/2000,00:00:06.66,451.17,104.98,906.25,-2.15,-2.91,-0.60,-10.95,46.95,42.45,29.99,10.131,
01/01/2000,00:00:06.76,460.45,94.73,887.21,0.40,-1.89,1.92,-12.45,45.90,42.15,29.95,10.129,
01/01/2000,00:00:06.86,462.40,101.56,896.00,0.74,-1.56,0.92,-11.70,46.95,42.45,29.75,10.127,
01/01/2000,00:00:06.96,462.40,108.89,875.49,2.50,-1.89,1.63,-11.70,45.90,42.90,29.75,10.124,
01/01/2000,00:00:07.06,462.89,107.91,886.72,0.55,0.19,1.53,-12.0,47.40,42.45,29.95,10.122,
01/01/2000,00:00:07.16,475.10,109.86,879.88,0.10,-1.01,-0.28,-10.80,48.0,43.35,29.90,10.120,
01/01/2000,00:00:07.26,470.21,102.05,880.86,-1.47,-1.61,-2.65,-11.70,46.65,41.85,29.99,10.118,
01/01/2000,00:00:07.36,484.38,91.31,882.81,-1.51,-2.58,2.03,-12.60,46.50,43.05,29.80,10.099,
01/01/2000,00:00:07.46,468.75,100.59,881.84,-1.08,-1.19,-2.27,-11.70,46.20,40.35,29.75,10.098,
01/01/2000,00:00:07.56,476.07,106.45,872.56,0.03,-0.18,0.32,-14.10,46.80,41.55,29.90,10.096,
01/01/2000,00:00:07.66,479.49,88.38,879.39,-1.19,-0.22,-1.50,-11.85,46.50,43.35,29.90,10.095,
01/01/2000,00:00:07.77,477.05,102.05,878.42,-1.37,0.51,-0.73,-13.20,46.65,41.85,29.95,10.093,
01/01/2000,00:00:07.87,481.93,101.07,876.46,-1.55,2.96,-0.06,-10.80,46.50,44.10,30.14,10.092,
01/01/2000,00:00:07.97,485.84,102.05,877.93,0.89,-2.86,2.57,-13.35,46.05,42.75,29.90,10.090,
01/01/2000,00:00:08.07,479.98,97.66,877.93,-0.31,-2.40,-0.84,-13.35,46.05,42.0,30.19,10.089,
01/01/2000,00:00:08.17,478.03,88.87,879.39,-1.38,2.99,0.53,-12.60,46.05,42.30,29.99,10.088,
01/01/2000,00:00:08.27,479.49,99.61,875.0,-0.96,-0.17,1.27,-13.35,46.80,41.25,29.90,10.086,
01/01/2000,00:00:08.37,472.17,111.33,880.86,0.63,0.63,2.79,-11.70,46.65,43.20,30.09,10.085,
01/01/2000,00:00:08.47,490.72,109.86,874.02,0.34,-1.47,1.08,-14.70,48.15,42.90,30.19,10.084,
01/01/2000,00:00:08.57,476.07,99.12,867.19,0.50,0.47,1.92,-13.95,46.65,42.15,29.80,10.083,
01/01/2000,00:00:08.67,480.96,89.84,881.84,-2.30,-1.37,0.65,-14.10,47.55,43.35,29.99,10.082,
01/01/2000,00:00:08.77,481.93,88.87,871.09,0.54,-0.35,0.85,-13.35,45.75,42.0,30.09,10.081,
01/01/2000,00:00:08.87,484.38,98.63,877.44,-2.98,2.82,-1.08,-13.20,46.65,42.90,30.09,10.080,
01/01/2000,00:00:08.97,486.33,85.45,879.39,0.52,1.79,2.05,-12.60,46.50,41.25,29.99,10.065,
01/01/2000,00:00:09.07,481.45,96.68,880.37,-2.02,-2.61,1.12,-12.60,46.50,42.75,30.33,10.065,
01/01/2000,00:00:09.17,482.42,93.26,875.49,-2.38,0.83,-5.66,-12.30,44.85,41.25,29.66,10.064,
01/01/2000,00:00:09.27,493.16,108.40,863.28,0.72,1.80,6.07,-12.30,47.55,42.0,30.19,10.063,
01/01/2000,00:00:09.38,492.19,102.05,875.49,-1.46,-0.11,-3.52,-13.20,45.90,42.45,29.95,10.062,
01/01/2000,00:00:09.48,487.30,95.21,870.12,-1.71,1.10,0.95,-13.65,45.75,42.0,29.99,10.061,
01/01/2000,00:00:09.58,493.65,106.93,875.0,-2.21,0.76,-2.73,-12.75,45.15,42.90,29.66,10.061,
01/01/2000,00:00:09.68,486.82,105.96,875.0,-1.08,-0.32,1.79,-12.75,45.90,41.10,30.28,10.060,
01/01/2000,00:00:09.78,473.63,104.98,860.84,0.82,1.51,1.11,-13.20,47.40,41.40,29.80,10.059,
01/01/2000,00:00:09.88,489.26,105.96,869.63,-3.91,0.63,-1.33,-13.35,46.20,42.45,29.99,10.058,
01/01/2000,00:00:09.98,500.0,94.73,874.51,0.78,-2.24,1.65,-13.05,46.80,42.0,30.19,10.058,
01/01/2000,00:00:10.08,490.23,102.05,867.68,-1.60,2.12,-1.59,-13.05,45.75,43.80,29.90,10.057,
01/01/2000,00:00:10.18,489.75,95.70,877.93,1.03,-5.72,4.79,-12.60,43.80,43.35,30.33,10.056,
01/01/2000,00:00:10.28,491.21,94.73,865.23,0.60,0.52,3.08,-13.20,46.95,43.95,30.09,10.056,
01/01/2000,00:00:10.38,484.86,102.05,877.44,0.0,-1.89,0.76,-12.0,46.20,42.90,30.19,10.055,
01/01/2000,00:00:10.48,489.75,100.10,868.65,0.27,0.38,1.63,-14.10,46.50,43.35,30.19,10.055,
01/01/2000,00:00:10.58,495.61,89.36,874.51,0.29,-3.52,-0.06,-13.50,45.90,42.45,30.09,10.054,
01/01/2000,00:00:10.68,488.77,110.84,868.65,-1.79,1.55,1.23,-13.20,46.65,42.45,29.95,10.043,
01/01/2000,00:00:10.78,484.86,100.10,873.54,-0.02,-0.99,-0.05,-11.70,46.65,42.90,30.33,10.042,
01/01/2000,00:00:10.88,489.26,88.38,876.95,-1.05,2.83,-0.79,-12.45,45.90,42.15,29.95,10.042,
01/01/2000,00:00:10.99,494.63,110.35,872.07,-0.51,4.0,1.15,-12.30,46.50,40.95,30.09,10.041,
01/01/2000,00:00:11.09,499.02,100.10,872.56,0.02,-0.28,2.31,-13.35,46.05,42.75,30.09,10.041,
01/01/2000,00:00:11.19,493.65,101.56,875.0,1.13,5.20,-0.11,-13.20,46.65,41.85,29.95,10.041,
01/01/2000,00:00:11.29,479.98,95.70,869.14,-0.82,-1.98,2.53,-13.20,46.20,42.45,29.95,10.040,
01/01/2000,00:00:11.39,496.09,96.19,873.54,1.35,-3.54,1.37,-13.65,45.75,42.0,30.14,10.040,
01/01/2000,00:00:11.49,498.54,109.38,875.49,-0.07,0.11,1.06,-12.60,44.55,42.0,29.95,10.039,
01/01/2000,00:00:11.59,482.91,85.94,871.58,-2.19,2.27,-0.44,-13.20,46.65,43.95,29.95,10.039,
01/01/2000,00:00:11.69,484.38,95.21,859.86,0.99,-0.75,2.66,-12.0,45.90,42.90,30.19,10.039,
01/01/2000,00:00:11.79,485.84,91.80,872.56,-0.35,2.97,-1.66,-14.40,46.05,42.30,30.09,10.038,
01/01/2000,00:00:11.89,495.12,101.07,864.26,1.53,-1.37,-1.26,-13.20,45.90,43.20,29.99,10.038,
01/01/2000,00:00:11.99,479.00,98.14,864.75,-2.24,-1.43,-2.16,-12.0,45.90,42.15,30.33,10.038,
01/01/2000,00:00:12.09,490.23,99.61,867.68,-2.19,3.26,-1.60,-14.85,46.80,41.55,29.99,10.037,
01/01/2000,00:00:12.19,489.26,104.49,874.51,-0.91,2.66,0.40,-13.35,46.80,42.0,30.28,10.037,
01/01/2000,00:00:12.29,491.21,97.66,873.54,-3.21,2.44,0.15,-12.60,47.25,42.30,30.09,10.027,
01/01/2000,00:00:12.39,485.84,93.26,872.56,-3.52,4.26,-3.10,-12.30,46.50,43.05,30.28,10.027,
01/01/2000,00:00:12.49,470.70,91.31,864.26,-1.76,4.59,-2.65,-13.35,46.05,43.05,29.75,10.027,
01/01/2000,00:00:12.60,489.26,98.63,874.02,-1.98,2.05,-0.69,-14.25,45.15,42.45,30.14,10.027,
01/01/2000,00:00:12.70,483.40,85.94,881.84,-0.41,2.29,-0.62,-13.05,44.55,42.0,29.95,10.026,
01/01/2000,00:00:12.80,478.52,101.56,877.93,-2.09,4.20,-1.11,-12.30,46.50,42.75,30.33,10.026,
01/01/2000,00:00:12.90,489.26,93.26,881.84,-1.77,2.96,-2.49,-14.70,47.40,42.45,30.33,10.026,
01/01/2000,00:00:13.00,500.98,98.14,874.02,-3.31,2.05,-3.40,-12.0,47.40,41.40,30.19,10.026,
01/01/2000,00:00:13.10,490.72,93.75,875.0,-1.87,-1.45,0.87,-12.60,46.50,42.0,30.09,10.025,
01/01/2000,00:00:13.20,492.68,99.12,867.19,0.47,-0.11,-0.91,-13.50,46.95,42.45,30.33,10.025,
01/01/2000,00:00:13.30,483.89,95.21,871.09,-1.76,-0.72,-1.05,-12.60,46.50,41.55,30.28,10.025,
01/01/2000,00:00:13.40,489.75,98.14,883.79,-2.52,2.01,1.19,-12.45,46.20,42.45,29.95,10.025,
01/01/2000,00:00:13.50,490.23,106.93,866.21,0.50,-1.33,1.87,-13.05,45.75,42.0,30.33,10.025,
01/01/2000,00:00:13.60,483.40,97.66,857.91,-3.19,0.57,-0.20,-13.35,46.80,43.80,30.28,10.024,
01/01/2000,00:00:13.70,497.07,89.36,869.14,1.71,-1.08,1.63,-12.60,46.50,43.05,30.19,10.024,
01/01/2000,00:00:13.80,477.54,88.38,875.0,0.27,-0.01,1.16,-14.25,46.65,42.45,30.33,10.024,
01/01/2000,00:00:13.90,487.30,95.21,873.05,-3.65,2.47,0.63,-12.0,46.95,41.40,30.09,10.016,
01/01/2000,00:00:14.00,492.19,85.45,872.56,0.39,0.44,1.44,-13.65,46.80,44.10,30.14,10.016,
01/01/2000,00:00:14.10,475.10,84.47,875.98,-0.82,-2.29,1.35,-13.95,45.90,42.90,30.33,10.016,
01/01/2000,00:00:14.21,492.19,104.49,875.49,-1.72,1.39,3.08,-14.40,47.25,42.75,29.95,10.016,
01/01/2000,00:00:14.31,473.14,93.26,877.44,0.20,-2.03,0.42,-11.85,45.30,42.75,30.09,10.015,
01/01/2000,00:00:14.41,487.79,100.59,864.26,-0.60,-1.11,1.18,-13.95,46.20,41.40,30.14,10.015,
01/01/2000,00:00:14.51,492.19,106.93,870.12,0.40,-0.27,0.69,-13.95,45.15,41.85,30.33,10.015,
01/01/2000,00:00:14.61,492.68,98.63,872.56,-1.89,-0.57,0.98,-12.30,46.80,41.55,30.33,10.015,
01/01/2000,00:00:14.71,485.84,87.89,869.63,-2.63,3.28,-0.60,-12.45,46.20,40.65,30.43,10.015,
01/01/2000,00:00:14.81,487.79,87.89,870.61,0.48,-1.80,1.53,-13.50,45.45,41.85,29.90,10.015,
01/01/2000,00:00:14.91,497.07,98.14,881.35,-0.57,0.08,-0.01,-13.95,47.40,41.40,30.33,10.015,
01/01/2000,00:00:15.01,480.96,93.26,868.16,-2.07,4.41,1.25,-12.60,45.30,43.05,30.09,10.015,
01/01/2000,00:00:15.11,487.30,93.26,871.09,1.55,4.15,0.40,-14.10,45.30,42.0,29.95,10.015,
01/01/2000,00:00:15.21,488.28,99.12,873.54,2.05,2.53,3.76,-14.70,46.20,42.15,30.33,10.014,
01/01/2000,00:00:15.31,493.65,96.68,879.39,0.50,-0.53,2.98,-12.60,45.75,42.75,30.19,10.014,
01/01/2000,00:00:15.41,501.95,99.12,877.93,1.08,0.15,2.35,-13.95,46.20,42.15,30.19,10.014,
01/01/2000,00:00:15.51,481.93,108.89,880.86,-2.07,2.69,-1.67,-12.45,45.15,42.90,29.80,10.007,
01/01/2000,00:00:15.61,491.21,88.87,884.77,-3.59,-1.22,-1.11,-13.20,45.45,42.45,30.33,10.007,
01/01/2000,00:00:15.71,490.72,94.73,876.95,0.98,-1.99,2.03,-12.75,46.95,42.45,30.19,10.007,
01/01/2000,00:00:15.81,482.91,97.66,879.88,0.08,1.42,0.56,-12.75,45.45,41.85,30.33,10.007,
01/01/2000,00:00:15.92,483.40,93.26,885.74,-0.91,-0.92,0.50,-13.50,44.70,42.15,30.33,10.007,
01/01/2000,00:00:16.02,487.79,102.54,867.19,-1.91,-2.36,1.24,-13.95,46.20,42.45,29.99,10.007,
01/01/2000,00:00:16.12,490.23,106.93,876.95,-1.41,-0.63,1.65,-12.60,46.50,42.30,29.95,10.007,
01/01/2000,00:00:16.22,498.05,103.52,873.54,0.02,0.08,-0.74,-13.20,48.15,41.40,30.33,10.007,
01/01/2000,00:00:16.32,481.45,89.84,869.63,-2.64,-2.75,-5.20,-13.50,45.90,42.45,29.99,10.007,
01/01/2000,00:00:16.42,483.89,98.63,876.95,1.47,-4.21,3.97,-14.25,45.90,42.45,30.33,10.007,
01/01/2000,00:00:16.52,500.49,91.31,875.49,-2.07,-0.20,1.79,-13.35,46.05,42.0,30.33,10.007,
01/01/2000,00:00:16.62,505.37,109.86,858.40,2.11,-6.18,1.46,-13.20,46.65,42.15,30.43,10.007,
01/01/2000,00:00:16.72,498.54,112.79,859.38,0.13,-3.01,-2.10,-13.05,46.50,42.0,30.09,10.006,
01/01/2000,00:00:16.82,494.14,96.19,878.42,-1.93,0.71,-3.65,-13.95,47.40,42.90,30.33,10.006,
01/01/2000,00:00:16.92,484.38,97.17,878.91,-3.46,3.92,-1.75,-14.25,45.45,43.20,30.33,10.006,
01/01/2000,00:00:17.02,477.05,95.70,872.07,-3.15,10.22,-3.08,-13.95,45.15,41.10,29.99,10.006,
01/01/2000,00:00:17.12,491.21,104.98,881.35,1.62,2.16,1.65,-14.10,44.85,42.0,30.62,10.006,
01/01/2000,00:00:17.22,482.42,93.26,877.93,0.38,-2.30,3.57,-12.75,46.20,42.15,30.33,10.0,
01/01/2000,00:00:17.32,484.38,103.52,876.46,-0.78,1.95,0.47,-14.10,44.10,41.25,30.09,10.0,
01/01/2000,00:00:17.42,503.91,104.98,880.86,-1.45,0.07,3.63,-13.05,46.05,42.75,30.09,10.0,
01/01/2000,00:00:17.53,486.82,104.98,867.19,-0.25,0.85,0.08,-13.65,44.85,42.30,30.62,10.0,
01/01/2000,00:00:17.63,492.19,98.63,875.98,0.63,-0.18,2.50,-14.10,46.50,43.35,30.47,10.0,
01/01/2000,00:00:17.73,500.98,91.80,874.51,-2.76,0.48,-1.02,-13.05,45.30,41.55,30.19,10.0,
01/01/2000,00:00:17.83,494.14,101.07,866.70,0.03,-2.35,0.84,-10.80,45.75,40.95,30.47,10.0,
01/01/2000,00:00:17.93,500.0,101.07,872.07,1.68,-1.01,1.03,-13.65,45.30,42.30,30.33,10.0,
01/01/2000,00:00:18.03,491.21,104.49,860.84,0.83,-0.64,-0.47,-13.95,45.45,43.20,30.28,10.0,
01/01/2000,00:00:18.13,490.72,84.96,862.30,-0.94,-0.59,1.64,-13.65,45.75,43.35,29.90,10.0,
01/01/2000,00:00:18.23,492.68,114.75,865.23,-1.52,3.34,3.76,-12.30,46.80,41.25,30.43,10.0,
01/01/2000,00:00:18.33,485.84,104.49,879.39,-2.63,4.87,-1.52,-12.60,46.05,42.0,30.47,10.0,
01/01/2000,00:00:18.43,490.72,107.42,876.95,-1.38,2.15,-0.50,-13.35,45.30,41.55,30.47,10.0,
01/01/2000,00:00:18.53,493.65,105.96,878.42,-2.09,3.15,2.55,-14.25,46.20,42.15,30.52,10.0,
01/01/2000,00:00:18.63,478.52,104.00,876.46,-0.33,5.82,-1.16,-13.50,47.70,42.15,30.33,10.0,
01/01/2000,00:00:18.73,479.49,92.29,879.88,1.60,2.28,1.88,-12.60,46.05,42.0,30.28,10.0,
01/01/2000,00:00:18.83,481.45,108.89,884.77,1.95,2.08,1.42,-14.10,44.85,42.75,30.09,9.994,
01/01/2000,00:00:18.93,489.26,89.84,873.05,-1.12,0.55,-2.82,-13.65,46.80,43.80,30.52,9.994,
01/01/2000,00:00:19.03,481.93,100.10,886.23,1.12,0.50,1.61,-13.95,46.20,41.85,30.33,9.994,
01/01/2000,00:00:19.14,496.58,101.07,882.81,-1.88,0.82,0.75,-13.65,45.30,42.75,30.33,9.994,
01/01/2000,00:00:19.24,477.54,102.05,879.88,-1.51,1.76,2.10,-14.10,46.50,42.0,29.99,9.994,
01/01/2000,00:00:19.34,482.91,110.84,880.86,-2.31,-0.89,-0.63,-13.35,46.50,42.30,30.33,9.994,
01/01/2000,00:00:19.44,480.96,106.45,889.16,-0.66,1.61,1.72,-13.95,45.90,42.90,30.09,9.994,
01/01/2000,00:00:19.54,484.86,94.24,886.72,-0.95,-3.98,2.69,-13.20,47.40,43.20,30.47,9.995,
01/01/2000,00:00:19.64,486.33,106.45,892.09,-1.37,-3.27,-2.95,-14.10,44.55,43.05,30.19,9.995,
01/01/2000,00:00:19.74,488.77,85.94,873.54,-1.13,0.92,0.74,-12.60,46.50,43.05,30.28,9.995,
01/01/2000,00:00:19.84,486.33,99.12,867.19,-1.27,-1.25,1.84,-13.20,45.15,41.40,30.33,9.995,
01/01/2000,00:00:19.94,484.38,115.23,860.84,-0.05,1.10,1.99,-12.30,46.50,41.25,30.09,9.995,
01/01/2000,00:00:20.04,484.38,93.75,877.44,-0.18,-4.53,0.10,-12.60,47.25,41.55,30.33,9.995,
01/01/2000,00:00:20.14,485.35,102.54,869.14,1.53,-1.29,2.73,-12.60,46.80,42.0,30.47,9.995,
01/01/2000,00:00:20.24,482.42,89.84,854.00,-2.08,0.68,-2.60,-14.25,43.95,42.45,30.43,9.995,
01/01/2000,00:00:20.34,484.38,92.77,870.61,-2.47,0.84,0.34,-13.05,46.50,42.0,30.52,9.995,
01/01/2000,00:00:20.44,496.58,96.19,873.54,-1.18,2.92,-0.21,-13.50,46.20,42.90,30.33,9.990,
01/01/2000,00:00:20.54,481.93,94.24,856.93,1.01,0.44,3.22,-15.0,46.65,42.45,30.33,9.990,
01/01/2000,00:00:20.64,481.93,103.03,861.82,0.79,-0.15,1.09,-13.50,45.15,42.45,29.99,9.990,
01/01/2000,00:00:20.75,490.23,99.61,871.09,1.42,3.33,2.95,-14.10,46.80,41.55,30.33,9.990,
01/01/2000,00:00:20.85,494.14,90.33,881.84,-0.47,6.63,-2.66,-13.50,44.40,42.90,30.52,9.990,
01/01/2000,00:00:20.95,482.42,113.28,874.02,2.10,1.60,1.11,-13.20,45.45,42.45,30.33,9.990,
01/01/2000,00:00:21.05,496.58,87.40,884.28,0.40,0.26,1.69,-12.75,44.40,41.10,30.33,9.990,
01/01/2000,00:00:21.15,488.77,109.86,886.72,-1.90,3.49,-0.38,-12.75,45.15,42.15,30.52,9.990,
01/01/2000,00:00:21.25,489.75,96.19,867.19,0.72,0.36,2.29,-13.95,46.20,41.40,30.62,9.990,
01/01/2000,00:00:21.35,487.30,100.10,876.46,-0.60,-4.11,-0.18,-12.0,44.70,41.85,30.52,9.990,
01/01/2000,00:00:21.45,494.63,105.96,873.05,1.58,-6.96,2.69,-14.25,45.90,43.20,30.62,9.990,
01/01/2000,00:00:21.55,491.21,94.24,875.0,-2.17,-7.43,-0.27,-12.75,45.15,41.40,29.95,9.990,
01/01/2000,00:00:21.65,490.23,99.12,869.14,-1.21,-2.86,0.29,-13.35,45.75,42.30,30.43,9.990,
01/01/2000,00:00:21.75,494.14,108.40,856.45,0.03,2.16,0.17,-13.50,45.15,42.15,30.47,9.990,
01/01/2000,00:00:21.85,491.70,96.68,861.33,0.75,2.17,2.85,-13.05,44.85,42.30,30.33,9.990,
01/01/2000,00:00:21.95,491.21,94.73,855.96,-2.54,2.82,-2.62,-13.50,45.90,42.45,30.33,9.990,
01/01/2000,00:00:22.05,494.14,94.73,871.09,-0.14,3.75,1.80,-13.35,46.05,42.30,30.28,9.986,
01/01/2000,00:00:22.15,491.70,87.89,867.68,-3.09,4.73,-1.08,-13.35,48.0,42.30,30.28,9.986,
01/01/2000,00:00:22.25,490.72,87.89,871.09,3.49,8.66,-2.49,-13.50,45.90,42.90,30.47,9.986,
01/01/2000,00:00:22.35,479.98,97.17,871.58,-0.55,4.98,-0.84,-11.85,46.80,42.30,29.95,9.986,
01/01/2000,00:00:22.46,480.47,101.56,868.65,-3.57,5.70,0.01,-13.95,45.90,40.65,30.62,9.986,
01/01/2000,00:00:22.56,480.47,95.21,869.63,-0.70,-1.73,-0.52,-13.65,47.25,43.05,30.33,9.986,
01/01/2000,00:00:22.66,485.84,106.93,863.28,-0.50,1.29,-0.10,-14.40,46.05,42.30,30.52,9.986,
01/01/2000,00:00:22.76,486.82,105.47,881.35,-1.66,9.16,0.92,-11.10,46.50,42.75,30.33,9.986,
01/01/2000,00:00:22.86,471.68,103.03,882.32,-2.67,1.12,1.17,-12.45,46.20,42.90,30.43,9.986,
01/01/2000,00:00:22.96,487.30,102.54,880.37,-1.92,4.40,0.44,-14.40,46.50,42.0,30.09,9.986,
01/01/2000,00:00:23.06,487.30,97.17,890.14,0.59,-0.11,1.64,-13.95,45.45,42.15,30.52,9.986,
01/01/2000,00:00:23.16,482.42,95.70,885.25,-4.0,2.28,-1.40,-14.10,46.50,42.75,30.47,9.986,
01/01/2000,00:00:23.26,487.30,95.21,876.46,-1.53,1.30,-1.59,-13.35,45.30,40.20,30.09,9.986,
01/01/2000,00:00:23.36,500.49,93.75,879.88,-1.41,4.84,-0.68,-12.60,46.80,42.75,30.09,9.986,
01/01/2000,00:00:23.46,480.96,105.47,887.70,-0.82,2.44,-1.74,-13.20,46.65,43.20,30.33,9.986,
01/01/2000,00:00:23.56,498.05,89.36,872.07,-0.94,0.08,1.91,-12.60,45.75,41.25,29.99,9.987,
01/01/2000,00:00:23.66,496.58,98.63,876.95,2.11,0.69,1.0,-13.50,45.90,42.45,30.67,9.987,
01/01/2000,00:00:23.76,489.26,104.98,881.84,-3.04,3.91,1.53,-13.35,46.05,43.80,30.47,9.982,
01/01/2000,00:00:23.86,482.42,104.98,879.88,0.63,2.18,4.08,-12.60,45.75,41.25,30.33,9.982,
01/01/2000,00:00:23.96,489.75,105.96,878.42,0.56,4.10,-1.37,-13.50,46.95,42.45,30.67,9.982,
01/01/2000,00:00:24.07,489.75,99.12,882.81,-0.26,-1.34,-0.84,-12.30,46.50,43.05,30.43,9.982,
01/01/2000,00:00:24.17,492.68,90.33,867.68,0.86,4.29,1.45,-14.40,46.05,41.55,30.47,9.982,
01/01/2000,00:00:24.27,491.21,95.21,884.28,0.76,2.33,0.13,-13.95,45.90,41.40,30.28,9.983,
01/01/2000,00:00:24.37,489.75,92.29,883.79,-0.76,2.13,0.69,-13.20,45.90,41.40,30.43,9.983,
01/01/2000,00:00:24.47,477.54,100.10,875.0,-0.67,1.40,3.37,-12.75,45.45,41.40,30.33,9.983,
01/01/2000,00:00:24.57,483.40,96.19,876.46,-0.82,-0.98,1.83,-14.25,46.20,42.90,30.33,9.983,
01/01/2000,00:00:24.67,484.38,104.00,876.95,-0.39,2.74,-0.44,-12.30,45.30,42.30,30.47,9.983,
01/01/2000,00:00:24.77,499.51,106.45,878.42,-1.41,1.81,-0.08,-15.60,44.10,41.55,30.52,9.983,
01/01/2000,00:00:24.87,487.79,93.75,876.95,-0.65,2.31,0.77,-12.75,44.70,41.40,29.99,9.983,
01/01/2000,00:00:24.97,490.72,122.56,888.67,-2.70,1.08,-4.74,-14.10,45.75,43.05,30.47,9.983,
01/01/2000,00:00:25.07,491.21,97.66,877.44,-0.44,0.08,1.04,-14.25,44.70,43.65,30.43,9.983,
01/01/2000,00:00:25.17,499.02,97.66,878.91,0.98,3.11,1.37,-13.20,44.70,41.85,30.62,9.983,
01/01/2000,00:00:25.27,496.58,110.84,882.32,-1.80,7.20,-1.05,-14.25,44.70,42.45,30.62,9.983,
01/01/2000,00:00:25.37,487.79,102.05,874.02,-1.70,0.84,-0.47,-13.65,46.05,42.30,30.62,9.979,
01/01/2000,00:00:25.47,483.40,102.05,871.58,-1.54,7.63,-2.30,-13.50,45.15,42.45,30.47,9.979,
01/01/2000,00:00:25.57,487.30,96.19,884.77,0.47,0.21,-0.85,-15.0,46.20,42.15,30.43,9.979,
01/01/2000,00:00:25.68,486.82,109.38,884.77,-1.54,4.11,-4.05,-12.30,45.30,42.0,30.19,9.979,
01/01/2000,00:00:25.78,480.47,101.07,881.35,-1.37,5.34,-2.58,-14.10,46.50,42.30,30.62,9.980,
01/01/2000,00:00:25.88,489.75,108.89,887.70,-1.50,5.26,0.17,-13.05,45.30,42.75,30.43,9.980,
01/01/2000,00:00:25.98,482.91,97.17,880.86,-3.68,2.33,-1.34,-12.45,44.40,41.85,30.19,9.980,
01/01/2000,00:00:26.08,497.07,104.49,875.98,-1.91,3.61,-3.24,-13.20,46.65,41.40,30.47,9.980,
01/01/2000,00:00:26.18,480.96,105.47,881.35,-1.93,1.56,-0.72,-14.85,46.50,42.0,30.52,9.980,
01/01/2000,00:00:26.28,472.66,102.54,887.70,-1.82,6.41,0.50,-15.15,44.85,40.95,30.28,9.980,
01/01/2000,00:00:26.38,482.91,104.00,877.44,1.77,1.46,0.73,-13.50,46.20,42.15,30.67,9.980,
01/01/2000,00:00:26.48,494.14,111.82,887.21,1.15,1.79,2.69,-14.25,47.70,43.20,30.19,9.980,
01/01/2000,00:00:26.58,489.75,90.33,869.14,-2.82,5.25,1.22,-13.20,46.20,43.20,30.33,9.980,
01/01/2000,00:00:26.68,488.77,117.19,877.93,0.02,1.92,-0.15,-13.05,44.85,42.75,30.47,9.980,
01/01/2000,00:00:26.78,495.61,96.19,872.07,0.32,1.85,3.54,-14.40,48.30,42.75,30.33,9.980,
01/01/2000,00:00:26.88,485.35,108.40,885.25,-0.03,3.73,0.78,-13.95,45.45,43.20,29.99,9.980,
01/01/2000,00:00:26.98,492.68,111.82,881.84,0.0,2.71,3.08,-12.45,46.65,42.90,30.47,9.977,
01/01/2000,00:00:27.08,488.28,101.56,881.84,-1.62,3.78,-4.91,-13.35,44.85,43.35,30.47,9.977,
01/01/2000,00:00:27.18,481.45,105.96,898.44,1.23,2.89,3.37,-13.65,46.80,42.30,30.47,9.977,
01/01/2000,00:00:27.29,479.98,103.52,884.77,-3.19,1.27,-1.05,-14.10,46.05,41.55,30.33,9.977,
01/01/2000,00:00:27.39,477.05,102.54,867.19,-0.19,-1.20,3.14,-13.95,45.90,42.15,30.47,9.977,
01/01/2000,00:00:27.49,494.14,107.91,882.32,-0.71,3.53,-3.97,-13.20,46.65,42.90,30.62,9.977,
01/01/2000,00:00:27.59,474.12,111.33,889.65,-1.76,-1.79,-1.66,-11.55,46.05,42.30,30.47,9.977,
01/01/2000,00:00:27.69,495.61,108.89,893.55,-1.63,4.75,-3.29,-12.30,45.30,42.0,30.52,9.977,
01/01/2000,00:00:27.79,488.28,94.24,878.42,-2.34,4.12,-1.80,-14.10,46.50,42.30,30.33,9.977,
01/01/2000,00:00:27.89,489.75,102.54,881.35,-1.52,3.20,-1.45,-11.55,46.80,43.05,30.47,9.977,
01/01/2000,00:00:27.99,481.93,105.96,879.39,-2.93,2.79,-1.86,-14.10,44.55,42.30,30.52,9.977,
01/01/2000,00:00:28.09,476.56,99.61,883.79,-2.34,3.44,0.97,-13.20,45.15,42.45,30.62,9.978,
01/01/2000,00:00:28.19,483.89,104.98,872.07,-2.86,1.18,-2.18,-13.35,46.05,43.05,30.47,9.978,
01/01/2000,00:00:28.29,486.33,109.86,877.93,-0.79,-0.87,0.47,-13.95,46.20,42.15,30.62,9.978,
01/01/2000,00:00:28.39,496.09,90.33,886.72,-3.93,7.46,-0.93,-15.15,46.05,41.55,30.33,9.978,
01/01/2000,00:00:28.49,485.35,98.14,889.65,0.53,-0.08,-0.06,-12.75,46.65,43.20,30.67,9.978,
01/01/2000,00:00:28.59,494.14,95.70,882.81,-2.24,2.03,1.04,-13.05,44.85,43.05,30.52,9.974,
01/01/2000,00:00:28.69,476.56,102.54,886.72,-0.31,0.57,1.82,-13.95,45.45,41.85,30.62,9.974,
01/01/2000,00:00:28.79,491.70,99.12,889.16,0.19,2.84,2.31,-12.75,46.20,42.45,30.47,9.975,
01/01/2000,00:00:28.89,477.05,93.75,888.18,-0.63,0.82,-1.91,-14.85,45.75,41.25,30.47,9.975,
01/01/2000,00:00:29.00,474.12,103.52,881.35,0.33,0.82,2.36,-13.65,46.05,42.30,30.43,9.975,
01/01/2000,00:00:29.10,485.35,98.14,878.42,-1.43,2.24,-1.97,-13.65,45.75,42.75,30.71,9.975,
01/01/2000,00:00:29.20,495.12,92.77,883.79,-0.09,-1.28,3.66,-13.05,46.05,43.35,30.43,9.975,
01/01/2000,00:00:29.30,476.56,103.03,887.70,0.72,0.20,2.21,-13.50,45.45,42.45,30.52,9.975,
01/01/2000,00:00:29.40,484.38,104.98,881.84,-0.88,-0.11,-0.85,-13.50,46.95,42.90,30.62,9.975,
01/01/2000,00:00:29.50,483.40,98.14,892.58,2.15,2.55,0.32,-13.95,46.20,43.65,30.43,9.975,
01/01/2000,00:00:29.60,488.77,118.65,888.18,0.60,-0.98,1.38,-12.45,45.90,42.90,30.62,9.975,
01/01/2000,00:00:29.70,473.14,95.21,885.25,-1.02,1.76,0.02,-13.65,45.75,42.0,30.52,9.975,
01/01/2000,00:00:29.80,478.52,104.49,881.84,-0.27,0.85,-0.49,-13.65,47.25,42.30,30.33,9.975,
01/01/2000,00:00:29.90,481.45,104.98,884.28,-0.05,0.73,0.63,-13.20,45.90,42.45,30.47,9.975,
01/01/2000,00:00:30.00,477.05,105.96,876.95,0.83,-1.63,2.13,-14.40,46.50,42.30,30.71,9.976,
01/01/2000,00:00:30.10,483.40,100.59,880.86,-0.45,3.46,2.50,-13.65,45.75,42.30,30.33,9.976,
01/01/2000,00:00:30.20,462.89,125.0,884.77,-1.06,3.24,1.05,-13.50,45.45,42.90,30.52,9.972,
01/01/2000,00:00:30.30,489.75,99.12,879.39,0.98,-0.22,2.44,-13.35,47.25,43.35,30.33,9.972,
01/01/2000,00:00:30.40,488.77,100.59,878.91,-0.05,-1.67,-0.74,-13.35,46.50,42.0,30.47,9.972,
01/01/2000,00:00:30.50,495.61,100.59,871.09,1.08,7.08,1.22,-13.50,46.20,43.20,30.28,9.973,
01/01/2000,00:00:30.61,479.00,96.19,875.98,0.97,4.19,4.07,-14.25,45.90,42.45,30.67,9.973,
01/01/2000,00:00:30.71,486.33,99.12,874.02,-0.56,3.02,3.95,-12.75,45.15,43.65,30.43,9.973,
01/01/2000,00:00:30.81,475.59,103.52,878.91,1.06,1.11,0.73,-11.85,46.50,42.75,30.62,9.973,
01/01/2000,00:00:30.91,504.88,103.52,874.02,-0.08,-1.56,0.24,-13.50,45.90,43.20,30.62,9.973,
01/01/2000,00:00:31.01,488.77,97.17,877.93,-3.40,5.58,-0.18,-13.05,46.05,43.05,30.33,9.973,
01/01/2000,00:00:31.11,479.00,103.52,881.84,-0.27,3.04,1.33,-12.30,46.05,42.30,30.28,9.973,
01/01/2000,00:00:31.21,483.40,83.50,876.46,0.21,6.74,-4.02,-13.65,45.75,42.0,30.62,9.973,
01/01/2000,00:00:31.31,468.75,93.26,873.05,-3.88,0.02,-2.57,-11.40,45.45,41.10,30.33,9.973,
01/01/2000,00:00:31.41,483.89,92.77,874.02,-3.48,5.60,-2.09,-13.35,47.55,40.95,30.62,9.973,
01/01/2000,00:00:31.51,492.19,102.05,878.42,-3.88,6.79,-0.24,-13.65,48.0,43.05,30.43,9.973,
01/01/2000,00:00:31.61,488.28,105.96,866.70,0.19,0.22,2.18,-13.35,46.80,42.30,30.62,9.974,
01/01/2000,00:00:31.71,480.96,99.61,873.54,-0.79,0.37,-0.55,-14.85,46.05,43.80,30.43,9.974,
01/01/2000,00:00:31.81,487.30,105.47,872.56,-3.01,4.68,-0.96,-13.95,46.20,42.45,30.67,9.970,
01/01/2000,00:00:31.91,492.68,104.00,884.28,0.60,-1.53,3.52,-13.20,45.90,43.20,30.33,9.971,
01/01/2000,00:00:32.01,491.70,90.82,878.42,-0.85,3.79,1.63,-13.05,46.05,43.05,30.62,9.971,
01/01/2000,00:00:32.11,478.52,96.19,880.86,1.40,1.41,4.99,-14.10,46.50,42.0,30.62,9.971,
01/01/2000,00:00:32.22,485.84,109.86,869.14,-3.30,3.91,0.63,-13.65,47.25,42.30,30.47,9.971,
01/01/2000,00:00:32.32,478.03,101.07,872.07,-4.18,4.45,-2.71,-14.40,46.80,41.55,30.47,9.971,
01/01/2000,00:00:32.42,498.05,97.17,888.18,-0.38,2.71,2.37,-12.30,46.80,42.0,30.52,9.971,
01/01/2000,00:00:32.52,472.66,107.91,878.42,-2.62,6.82,-1.60,-13.50,46.20,42.15,30.43,9.971,
01/01/2000,00:00:32.62,479.00,110.84,880.86,-0.22,-2.08,1.69,-13.65,46.05,42.0,30.33,9.971,
01/01/2000,00:00:32.72,491.21,99.61,875.0,-1.73,3.10,0.18,-13.05,47.55,41.25,30.62,9.971,
01/01/2000,00:00:32.82,483.40,103.03,869.14,-1.56,2.49,0.41,-13.05,46.80,42.75,30.67,9.971,
01/01/2000,00:00:32.92,487.30,100.59,872.56,-1.74,-1.05,4.82,-13.95,45.15,44.25,30.67,9.972,
01/01/2000,00:00:33.02,480.47,109.86,859.86,-0.35,1.16,2.26,-13.05,45.75,42.30,30.28,9.972,
01/01/2000,00:00:33.12,491.70,96.19,874.51,0.52,-0.82,1.03,-12.75,46.20,41.85,30.33,9.972,
01/01/2000,00:00:33.22,484.86,103.03,864.75,0.61,0.72,3.12,-13.50,45.15,42.45,30.62,9.972,
01/01/2000,00:00:33.32,494.63,96.68,870.12,1.15,0.27,-1.73,-13.20,44.70,42.15,30.71,9.972,
01/01/2000,00:00:33.42,496.58,98.14,861.82,-2.45,-0.21,-0.26,-13.50,45.15,42.15,30.62,9.972,
01/01/2000,00:00:33.52,485.35,97.17,880.37,1.15,0.27,2.06,-12.30,45.30,42.30,30.52,9.969,
01/01/2000,00:00:33.62,479.49,105.96,863.28,-2.39,4.53,-1.15,-13.35,44.55,41.25,30.43,9.969,
01/01/2000,00:00:33.72,490.23,91.31,868.16,-1.51,0.77,2.13,-12.45,45.45,41.10,30.47,9.969,
01/01/2000,00:00:33.83,490.23,98.14,861.33,-0.77,0.18,3.16,-13.05,46.05,42.0,30.62,9.969,
01/01/2000,00:00:33.93,480.47,97.66,857.91,-2.65,-0.54,-1.16,-13.05,47.25,41.25,30.67,9.969,
01/01/2000,00:00:34.03,487.79,103.03,864.75,-4.20,5.24,-0.21,-14.40,45.30,43.35,30.19,9.969,
01/01/2000,00:00:34.13,486.33,94.24,859.38,-2.79,-1.87,-2.88,-12.60,46.80,41.55,30.62,9.970,
01/01/2000,00:00:34.23,490.72,89.36,869.14,-3.11,-1.20,-0.92,-14.25,46.65,41.40,30.52,9.970,
01/01/2000,00:00:34.33,483.40,84.47,874.02,-1.82,0.99,-2.32,-12.60,46.05,42.75,30.67,9.970,
01/01/2000,00:00:34.43,475.59,101.56,868.65,-0.22,-2.40,2.32,-12.60,46.05,43.35,30.28,9.970,
01/01/2000,00:00:34.53,491.70,104.00,850.10,0.32,-1.74,0.53,-14.40,46.05,42.75,30.52,9.970,
01/01/2000,00:00:34.63,475.10,96.68,864.26,-1.49,2.74,-1.43,-13.35,46.50,44.10,30.19,9.970,
01/01/2000,00:00:34.73,492.19,96.19,867.68,-2.73,2.73,0.02,-12.60,46.50,42.30,30.86,9.970,
01/01/2000,00:00:34.83,483.40,96.68,863.77,-2.75,0.95,-2.35,-13.05,46.50,43.05,30.47,9.970,
01/01/2000,00:00:34.93,495.61,88.38,875.98,-1.18,-2.08,-0.27,-12.75,45.90,42.45,30.33,9.970,
01/01/2000,00:00:35.03,489.26,111.82,861.33,-1.20,-1.98,0.05,-12.60,46.80,42.30,30.67,9.970,
01/01/2000,00:00:35.13,479.98,91.80,860.84,-0.05,-1.98,-0.88,-13.35,46.05,42.0,30.62,9.967,
01/01/2000,00:00:35.23,492.19,103.03,854.49,0.68,0.92,1.66,-12.75,45.45,42.15,30.28,9.968,
01/01/2000,00:00:35.33,483.40,103.52,866.21,0.31,-0.11,4.97,-14.10,46.50,41.55,30.67,9.968,
01/01/2000,00:00:35.43,501.95,87.89,870.61,-0.90,-2.37,-0.27,-13.65,47.25,43.05,30.33,9.968,
01/01/2000,00:00:35.54,491.21,96.19,873.05,-1.17,6.51,-0.02,-13.20,46.65,42.45,30.47,9.968,
01/01/2000,00:00:35.64,479.49,105.96,880.37,1.60,-2.74,-2.21,-13.65,46.80,42.30,30.52,9.968,
01/01/2000,00:00:35.74,490.72,89.36,866.21,0.45,-3.96,0.94,-12.30,46.05,42.75,30.67,9.968,
01/01/2000,00:00:35.84,483.40,91.31,861.33,-0.73,0.97,1.37,-13.65,47.25,41.55,30.71,9.968,
01/01/2000,00:00:35.94,482.91,105.47,868.16,-0.49,0.15,3.11,-14.40,45.30,42.0,30.43,9.968,
01/01/2000,00:00:36.04,498.54,104.00,865.72,-0.94,0.95,-1.63,-13.20,46.20,42.90,30.67,9.968,
01/01/2000,00:00:36.14,481.93,104.98,868.65,-2.11,3.89,-2.65,-12.60,45.75,43.80,30.71,9.968,
01/01/2000,00:00:36.24,483.89,106.45,865.72,-1.44,-0.79,-0.78,-13.65,45.30,41.55,30.09,9.968,
01/01/2000,00:00:36.34,482.42,95.21,861.82,1.24,-4.90,-0.59,-15.0,45.90,42.90,30.52,9.969,
01/01/2000,00:00:36.44,490.72,105.47,860.35,-2.40,-0.51,-0.15,-11.40,45.90,42.15,30.81,9.969,
01/01/2000,00:00:36.54,485.84,97.66,867.68,1.28,-2.92,1.77,-12.45,47.40,42.15,30.67,9.969,
01/01/2000,00:00:36.64,483.89,105.96,867.68,-0.08,-0.75,-0.89,-13.05,45.75,41.55,30.62,9.969,
01/01/2000,00:00:36.74,491.70,107.91,870.61,-0.40,1.19,-0.69,-12.45,45.45,41.85,30.52,9.966,
01/01/2000,00:00:36.84,476.56,98.63,861.82,-0.99,-0.96,0.59,-13.05,45.75,42.75,30.62,9.966,
01/01/2000,00:00:36.94,494.14,93.75,868.65,-2.43,-2.95,0.51,-12.60,45.30,44.10,30.52,9.966,
01/01/2000,00:00:37.04,492.68,95.70,868.16,-2.54,1.98,-2.37,-13.95,46.65,42.15,30.62,9.966,
01/01/2000,00:00:37.15,489.26,88.38,869.14,-0.51,-0.98,0.44,-12.75,46.20,43.65,30.62,9.966,
01/01/2000,00:00:37.25,488.28,90.82,867.68,-2.79,-1.58,-1.80,-13.05,46.50,42.0,30.67,9.967,
01/01/2000,00:00:37.35,483.40,91.31,875.98,1.73,-1.98,2.09,-12.75,45.90,43.20,30.67,9.967,
01/01/2000,00:00:37.45,488.77,107.91,871.58,-2.85,2.66,0.27,-14.40,45.75,42.0,30.47,9.967,
01/01/2000,00:00:37.55,487.79,91.31,878.91,0.13,-1.27,1.92,-12.60,46.80,42.30,30.43,9.967,
01/01/2000,00:00:37.65,488.28,96.19,868.65,-1.12,-1.23,-1.33,-13.20,45.90,42.15,30.67,9.967,
01/01/2000,00:00:37.75,481.93,87.89,879.88,1.34,-5.21,1.59,-14.25,44.70,41.85,30.52,9.967,
01/01/2000,00:00:37.85,469.73,100.10,870.61,2.92,1.02,1.86,-12.75,46.95,42.45,30.62,9.967,
01/01/2000,00:00:37.95,485.35,84.96,855.47,1.08,-0.73,2.22,-13.35,44.85,42.30,30.28,9.967,
01/01/2000,00:00:38.05,487.30,102.54,857.91,1.90,-2.38,1.98,-13.50,46.20,42.45,30.52,9.967,
01/01/2000,00:00:38.15,493.65,95.70,870.12,0.31,0.10,1.85,-14.10,44.85,42.0,30.47,9.967,
01/01/2000,00:00:38.25,487.30,121.09,878.91,-1.12,1.0,-1.31,-14.70,45.90,42.15,30.62,9.967,
01/01/2000,00:00:38.35,495.61,105.96,854.00,2.18,0.39,0.62,-13.20,45.45,42.90,30.62,9.968,
01/01/2000,00:00:38.45,493.16,92.77,859.38,-0.56,1.79,-2.62,-11.85,46.50,43.80,30.47,9.965,
01/01/2000,00:00:38.55,478.03,90.82,864.26,-2.06,0.94,-2.38,-14.10,44.85,42.75,30.67,9.965,
01/01/2000,00:00:38.65,490.72,100.10,861.82,1.66,0.83,1.88,-13.50,46.20,42.15,30.62,9.965,
01/01/2000,00:00:38.76,468.26,106.45,864.26,-0.91,-0.80,-1.44,-13.65,46.05,42.75,30.33,9.965,
01/01/2000,00:00:38.86,482.42,92.29,866.21,-0.86,1.25,-2.14,-13.05,46.05,42.0,30.67,9.965,
01/01/2000,00:00:38.96,488.28,104.98,864.26,-0.18,0.08,-2.66,-12.75,46.20,42.45,30.52,9.965,
01/01/2000,00:00:39.06,477.05,95.21,865.72,-2.30,1.06,-0.37,-14.40,45.75,42.0,30.81,9.966,
01/01/2000,00:00:39.16,491.21,97.66,861.82,-0.37,-1.87,2.18,-12.75,46.95,42.15,30.67,9.966,
01/01/2000,00:00:39.26,485.84,104.00,863.77,-0.73,0.18,-3.72,-12.30,46.50,42.30,30.67,9.966,
01/01/2000,00:00:39.36,492.68,87.89,867.19,-2.28,2.51,-1.72,-11.85,46.50,43.05,30.62,9.966,
01/01/2000,00:00:39.46,494.63,96.19,876.95,-3.17,0.44,0.20,-12.0,46.20,42.45,30.62,9.966,
01/01/2000,00:00:39.56,483.89,101.56,868.16,-2.97,-0.71,-4.28,-13.95,47.70,41.85,30.47,9.966,
01/01/2000,00:00:39.66,489.26,97.17,881.84,-0.96,1.80,3.10,-12.45,46.20,42.15,30.47,9.966,
01/01/2000,00:00:39.76,481.45,108.89,868.16,-4.0,-0.01,0.11,-14.40,45.30,42.75,30.47,9.966,
01/01/2000,00:00:39.86,463.87,104.00,872.07,-0.92,3.59,2.75,-13.35,46.05,42.30,30.62,9.966,
01/01/2000,00:00:39.96,480.96,103.52,872.56,-0.97,-1.19,0.58,-13.95,46.20,43.20,30.67,9.966,
01/01/2000,00:00:40.06,483.40,110.35,871.09,1.16,-3.47,1.73,-13.50,45.15,43.20,30.81,9.964,
01/01/2000,00:00:40.16,484.86,96.68,862.30,-0.60,-2.71,0.80,-13.20,46.65,42.45,30.62,9.964,
01/01/2000,00:00:40.26,489.75,104.00,862.30,0.15,0.02,2.47,-11.70,47.70,42.90,30.67,9.964,
01/01/2000,00:00:40.37,490.72,93.26,863.28,1.66,-1.64,2.82,-14.25,46.20,42.90,30.62,9.964,
01/01/2000,00:00:40.47,486.82,94.24,873.54,0.10,-0.57,3.63,-13.35,46.05,42.75,30.62,9.964,
01/01/2000,00:00:40.57,482.91,105.47,873.54,0.51,-1.67,0.48,-13.65,46.50,44.10,30.33,9.964,
01/01/2000,00:00:40.67,486.82,103.52,866.70,0.18,-1.17,2.0,-12.45,45.45,42.15,30.62,9.964,
01/01/2000,00:00:40.77,481.45,79.10,871.09,0.11,5.69,-4.01,-13.95,43.95,42.90,30.33,9.965,
01/01/2000,00:00:40.87,485.35,89.36,861.33,1.51,-1.52,0.85,-12.30,47.25,42.0,30.62,9.965,
01/01/2000,00:00:40.97,483.40,88.87,866.21,-0.17,-1.85,1.86,-12.75,46.20,41.40,30.52,9.965,
01/01/2000,00:00:41.07,489.26,96.19,864.26,1.82,1.25,-3.10,-14.10,45.75,42.75,30.71,9.965,
01/01/2000,00:00:41.17,490.23,90.33,865.72,-0.92,2.48,2.53,-13.35,45.30,43.05,30.62,9.965,
01/01/2000,00:00:41.27,482.91,91.80,860.35,-2.07,2.67,-1.67,-12.45,46.20,42.90,30.67,9.965,
01/01/2000,00:00:41.37,491.21,86.43,876.46,-2.63,1.89,-1.43,-13.20,44.70,42.15,30.86,9.965,
01/01/2000,00:00:41.47,484.38,101.07,866.21,-3.62,-1.37,-1.66,-13.35,45.30,41.55,30.47,9.965,
01/01/2000,00:00:41.57,490.72,94.73,874.51,-0.96,1.03,-1.27,-14.70,44.70,42.45,30.67,9.965,
01/01/2000,00:00:41.67,486.33,93.75,874.02,-1.13,-0.71,-1.50,-14.10,46.50,41.25,30.67,9.963,
01/01/2000,00:00:41.77,476.07,105.47,883.79,-1.14,-1.38,-2.48,-12.75,45.90,41.85,30.33,9.963,
01/01/2000,00:00:41.87,482.42,100.59,868.16,-1.68,0.52,0.94,-13.50,46.20,41.40,30.52,9.963,
01/01/2000,00:00:41.98,489.75,104.98,863.77,-0.08,-2.06,3.95,-14.10,46.50,42.0,30.62,9.963,
01/01/2000,00:00:42.08,492.19,91.31,861.33,-1.33,0.95,-0.88,-12.75,47.70,42.90,30.47,9.963,
01/01/2000,00:00:42.18,486.82,94.24,870.61,-0.34,-0.58,-1.27,-13.35,46.50,42.0,30.62,9.963,
01/01/2000,00:00:42.28,490.72,107.42,880.37,-0.92,3.23,0.02,-13.65,46.80,42.0,30.52,9.963,
01/01/2000,00:00:42.38,483.89,101.56,882.32,0.79,0.74,1.56,-13.20,46.95,42.45,30.47,9.963,
01/01/2000,00:00:42.48,483.40,107.91,874.02,1.46,-1.75,3.02,-12.45,47.40,42.90,30.47,9.964,
01/01/2000,00:00:42.58,492.68,97.66,870.61,-0.31,-0.85,0.45,-13.20,47.40,42.45,30.67,9.964,
01/01/2000,00:00:42.68,484.86,92.77,858.40,-2.89,-3.44,-0.61,-13.05,46.50,42.30,30.43,9.964,
01/01/2000,00:00:42.78,488.28,88.38,858.40,-1.78,1.16,2.52,-13.20,45.90,41.10,30.52,9.964,
01/01/2000,00:00:42.88,484.38,104.49,872.07,0.18,-0.53,3.58,-14.10,46.50,41.55,30.81,9.964,
01/01/2000,00:00:42.98,497.07,95.21,860.35,-2.40,2.24,-0.50,-14.25,46.20,43.20,30.47,9.964,
01/01/2000,00:00:43.08,480.96,102.54,871.09,-3.74,6.56,1.44,-11.85,44.55,43.05,30.67,9.964,
01/01/2000,00:00:43.18,471.68,103.03,867.68,-1.70,-0.34,-0.93,-13.05,46.05,43.35,30.52,9.964,
01/01/2000,00:00:43.28,479.00,103.52,869.63,0.19,3.47,-2.34,-13.65,46.05,41.55,30.33,9.962,
01/01/2000,00:00:43.38,492.68,89.36,865.72,-4.37,7.12,-0.60,-13.35,44.85,43.80,30.62,9.962,
01/01/2000,00:00:43.48,478.03,98.14,887.21,-0.67,5.05,3.60,-13.95,45.45,42.90,30.62,9.962,
01/01/2000,00:00:43.58,480.96,100.10,874.02,-0.86,1.64,-1.74,-14.40,46.05,42.30,30.62,9.962,
01/01/2000,00:00:43.69,485.84,97.17,871.58,-2.36,3.27,2.23,-14.40,46.05,41.55,30.71,9.962,
01/01/2000,00:00:43.79,487.79,104.00,878.91,-1.35,5.92,-3.34,-14.10,45.30,43.35,30.67,9.962,
01/01/2000,00:00:43.89,463.38,122.56,878.91,-1.01,0.15,2.76,-13.05,46.50,42.75,30.28,9.962,
01/01/2000,00:00:43.99,491.21,112.79,887.21,-2.79,4.95,0.46,-13.05,46.80,43.80,30.71,9.962,
01/01/2000,00:00:44.09,476.56,97.17,879.39,1.19,3.72,2.04,-13.05,48.0,42.30,30.62,9.963,
01/01/2000,00:00:44.19,486.82,96.19,883.79,0.56,-1.09,4.11,-11.55,44.85,43.35,30.52,9.963,
01/01/2000,00:00:44.29,478.52,104.49,875.49,0.35,5.05,-0.89,-13.20,46.65,42.45,30.62,9.963,
01/01/2000,00:00:44.39,478.52,105.96,873.05,1.51,2.66,3.85,-13.95,46.20,42.15,30.47,9.963,
01/01/2000,00:00:44.49,472.17,109.86,872.07,-1.15,3.05,0.92,-13.50,45.45,41.85,30.67,9.963,
01/01/2000,00:00:44.59,477.54,111.82,880.37,0.27,-0.79,2.18,-12.30,47.55,42.30,30.67,9.963,
01/01/2000,00:00:44.69,479.98,85.94,879.39,-1.37,5.31,-1.19,-12.60,46.50,42.0,30.62,9.963,
01/01/2000,00:00:44.79,481.93,94.24,882.81,-1.59,4.17,-0.98,-14.10,46.50,42.75,30.71,9.963,
01/01/2000,00:00:44.89,468.26,106.93,888.67,-3.85,9.90,-0.40,-13.35,45.30,41.55,30.33,9.963,
01/01/2000,00:00:44.99,483.40,123.05,884.77,-0.96,6.72,0.02,-12.45,45.90,42.90,30.67,9.961,
01/01/2000,00:00:45.09,488.77,96.68,889.65,-1.15,2.41,-0.45,-13.50,45.45,42.15,30.67,9.961,
01/01/2000,00:00:45.19,468.26,103.03,890.63,-1.38,6.50,-1.31,-14.70,46.65,40.65,30.33,9.961,
01/01/2000,00:00:45.30,467.29,108.40,885.74,0.0,2.85,-0.64,-12.0,46.95,42.15,30.43,9.961,
01/01/2000,00:00:45.40,486.33,107.42,884.28,-1.81,8.26,-1.48,-15.15,46.05,43.35,30.62,9.961,
01/01/2000,00:00:45.50,487.79,93.26,875.98,0.40,2.33,-2.13,-12.75,45.15,42.45,30.52,9.962,
01/01/2000,00:00:45.60,474.12,104.00,884.77,-3.57,3.90,-2.60,-13.95,45.90,41.40,30.67,9.962,
01/01/2000,00:00:45.70,476.07,103.03,879.39,-3.32,3.71,-2.09,-13.35,46.50,43.05,30.52,9.962,
01/01/2000,00:00:45.80,475.59,107.42,872.07,-1.71,6.31,-4.72,-12.0,46.20,42.15,30.67,9.962,
01/01/2000,00:00:45.90,501.46,97.17,872.07,-2.33,0.77,1.98,-12.75,46.95,43.95,30.33,9.962,
01/01/2000,00:00:46.00,493.16,102.54,885.74,0.25,4.66,0.71,-12.45,46.65,42.45,30.86,9.962,
01/01/2000,00:00:46.10,495.61,98.14,881.84,-2.14,1.66,-1.39,-11.70,45.45,42.15,30.47,9.962,
01/01/2000,00:00:46.20,490.23,110.84,877.44,2.05,2.77,0.79,-13.50,47.40,42.45,30.62,9.962,
01/01/2000,00:00:46.30,476.07,101.07,873.54,-1.21,0.0,0.44,-14.10,46.50,42.75,30.67,9.962,
01/01/2000,00:00:46.40,479.98,93.26,867.68,0.98,2.48,1.62,-12.60,45.75,43.35,30.67,9.962,
01/01/2000,00:00:46.50,489.75,105.47,875.0,-0.59,3.48,5.44,-13.20,45.90,42.15,30.62,9.962,
01/01/2000,00:00:46.60,479.98,102.05,874.51,0.85,3.16,-0.30,-13.35,47.25,42.30,30.43,9.960,
01/01/2000,00:00:46.70,475.10,99.12,880.37,-0.03,-0.11,1.05,-13.95,45.45,43.20,30.86,9.960,
01/01/2000,00:00:46.80,475.59,104.49,878.42,-2.78,3.95,0.04,-13.05,46.50,41.55,30.43,9.960,
01/01/2000,00:00:46.91,483.89,108.89,879.39,-0.66,2.24,2.66,-12.60,45.75,43.05,30.47,9.961,
01/01/2000,00:00:47.01,483.40,103.52,879.88,-0.30,-0.34,-2.79,-12.75,46.65,43.20,30.95,9.961,
01/01/2000,00:00:47.11,492.68,96.68,874.51,-2.27,4.27,-0.56,-12.45,45.90,43.95,30.67,9.961,
01/01/2000,00:00:47.21,479.98,103.52,878.91,-2.27,2.25,3.60,-13.95,45.90,42.45,30.33,9.961,
01/01/2000,00:00:47.31,485.35,92.29,888.67,-1.19,1.16,0.69,-13.35,47.55,42.30,30.86,9.961,
01/01/2000,00:00:47.41,475.59,91.31,879.88,-4.13,3.31,-1.58,-12.0,46.20,42.15,30.47,9.961,
01/01/2000,00:00:47.51,477.05,106.93,874.02,-2.85,2.24,1.55,-12.0,45.45,41.85,30.67,9.961,
01/01/2000,00:00:47.61,476.56,99.12,890.14,-2.02,4.69,-2.88,-12.75,45.15,43.20,30.62,9.961,
01/01/2000,00:00:47.71,481.93,98.63,875.0,-0.27,1.69,3.02,-13.05,45.75,42.0,30.71,9.961,
01/01/2000,00:00:47.81,479.98,115.72,882.32,-4.58,3.63,-4.57,-13.95,46.20,41.85,30.33,9.961,
01/01/2000,00:00:47.91,482.91,97.17,886.23,0.52,3.08,3.26,-12.60,44.85,43.80,30.62,9.961,
01/01/2000,00:00:48.01,465.82,103.52,885.25,-1.67,0.24,0.24,-13.20,46.65,42.15,30.67,9.961,
01/01/2000,00:00:48.11,481.93,99.12,877.93,1.07,-0.58,0.80,-14.85,46.80,42.30,30.67,9.962,
01/01/2000,00:00:48.21,475.59,104.49,876.46,0.91,1.77,1.46,-12.75,46.65,42.90,30.67,9.959,
01/01/2000,00:00:48.31,484.38,110.35,879.39,-1.27,1.41,-4.50,-13.35,46.05,42.75,30.67,9.960,
01/01/2000,00:00:48.41,484.38,107.91,882.81,0.85,2.78,1.75,-12.30,45.75,42.30,30.33,9.960,
01/01/2000,00:00:48.52,489.75,110.35,882.81,0.04,-0.31,1.44,-12.30,46.50,42.75,30.52,9.960,
01/01/2000,00:00:48.62,481.45,111.33,881.35,0.0,-1.14,0.37,-13.65,46.80,43.35,30.67,9.960,
01/01/2000,00:00:48.72,471.19,101.56,882.32,2.45,-0.55,-0.05,-12.75,46.20,41.40,30.67,9.960,
01/01/2000,00:00:48.82,476.56,98.63,884.28,-1.35,-0.42,0.19,-14.85,45.75,43.05,30.28,9.960,
01/01/2000,00:00:48.92,480.96,113.77,872.07,0.55,2.69,1.58,-13.50,45.90,43.20,30.67,9.960,
01/01/2000,00:00:49.02,477.05,114.26,877.44,-0.67,4.52,0.58,-13.65,45.75,42.30,30.52,9.960,
01/01/2000,00:00:49.12,487.79,88.38,876.95,-1.05,-0.51,1.41,-13.20,45.45,42.90,30.67,9.960,
01/01/2000,00:00:49.22,483.89,108.40,875.0,-0.47,6.93,-0.73,-12.60,46.05,42.0,30.52,9.960,
01/01/2000,00:00:49.32,481.45,100.10,878.42,-2.11,9.07,-2.82,-12.30,46.05,42.0,30.67,9.960,
01/01/2000,00:00:49.42,485.84,99.12,890.63,1.15,1.27,-1.15,-13.35,44.10,42.75,30.67,9.960,
01/01/2000,00:00:49.52,479.00,95.21,875.49,-1.80,0.40,0.30,-12.75,45.90,41.40,30.47,9.961,
01/01/2000,00:00:49.62,489.26,108.89,879.39,-0.89,5.19,1.27,-13.05,46.05,42.0,30.86,9.961,
01/01/2000,00:00:49.72,486.82,91.80,872.56,-0.71,1.92,-1.89,-12.30,45.75,42.75,30.81,9.961,
01/01/2000,00:00:49.82,474.61,103.03,870.61,-2.91,1.36,-0.03,-13.95,46.95,41.85,30.67,9.959,
01/01/2000,00:00:49.92,485.35,95.70,868.65,-2.12,4.85,-2.83,-13.50,46.95,43.20,30.67,9.959,
01/01/2000,00:00:50.02,483.89,103.52,882.32,-0.79,3.04,1.76,-11.85,46.50,43.05,30.52,9.959,
01/01/2000,00:00:50.12,480.47,89.84,875.49,0.83,1.60,3.07,-13.65,45.30,42.75,30.62,9.959,
01/01/2000,00:00:50.23,481.45,96.19,886.72,0.56,1.22,0.43,-12.60,44.85,43.05,31.00,9.959,
01/01/2000,00:00:50.33,479.49,89.36,877.93,-0.31,3.39,2.31,-12.45,46.95,43.20,30.81,9.959,
01/01/2000,00:00:50.43,478.52,104.49,872.56,-1.25,1.98,1.85,-14.25,46.95,44.25,30.47,9.959,
01/01/2000,00:00:50.53,480.96,88.38,873.05,0.70,-1.70,2.69,-14.10,45.75,42.0,30.67,9.959,
01/01/2000,00:00:50.63,484.86,110.35,888.18,-0.33,2.0,0.62,-14.10,45.75,41.55,30.71,9.959,
01/01/2000,00:00:50.73,483.40,109.86,883.30,-0.79,4.37,0.14,-14.10,44.85,42.30,30.62,9.960,
01/01/2000,00:00:50.83,477.05,108.89,867.19,0.72,0.71,-1.16,-15.60,45.75,42.75,30.47,9.960,
01/01/2000,00:00:50.93,484.38,105.96,868.16,-3.65,3.63,0.54,-14.10,46.50,42.30,30.81,9.960,
01/01/2000,00:00:51.03,475.59,104.49,877.93,0.11,2.56,0.67,-13.50,45.15,41.85,30.86,9.960,
01/01/2000,00:00:51.13,493.16,94.24,877.93,0.53,-0.37,2.92,-13.95,46.95,43.95,30.86,9.960,
01/01/2000,00:00:51.23,481.45,98.14,872.56,-1.92,6.09,-4.40,-13.05,46.50,42.30,30.67,9.960,
01/01/2000,00:00:51.33,482.42,104.49,885.25,0.59,-0.02,1.17,-13.35,44.85,42.30,30.62,9.960,
01/01/2000,00:00:51.43,481.45,96.19,883.79,-1.80,2.07,-1.24,-14.10,46.05,42.30,30.62,9.960,
01/01/2000,00:00:51.53,478.03,94.24,886.72,-0.14,1.63,3.81,-13.35,46.05,43.05,30.71,9.958,
01/01/2000,00:00:51.63,479.49,107.42,871.58,0.83,0.57,-1.38,-13.50,44.70,42.15,31.00,9.958,
01/01/2000,00:00:51.73,478.52,88.38,879.88,-1.88,3.98,-0.12,-12.60,45.75,42.0,31.05,9.958,
01/01/2000,00:00:51.83,477.54,100.10,890.14,2.74,4.21,1.79,-13.35,45.75,42.75,30.62,9.958,
01/01/2000,00:00:51.94,486.33,106.45,880.37,-0.39,3.56,-1.75,-13.05,45.30,42.0,30.47,9.959,
01/01/2000,00:00:52.04,485.84,101.07,877.93,1.11,-0.39,2.27,-14.25,46.65,42.90,30.47,9.959,
01/01/2000,00:00:52.14,477.05,105.47,889.65,-1.56,3.28,1.09,-11.85,46.05,43.80,30.86,9.959,
01/01/2000,00:00:52.24,480.47,90.82,883.79,-1.64,8.10,-2.47,-13.50,45.15,45.0,30.33,9.959,
01/01/2000,00:00:52.34,490.23,100.59,877.44,-3.77,2.20,-2.01,-12.60,47.55,40.95,31.00,9.959,
01/01/2000,00:00:52.44,484.38,89.84,870.61,-3.10,5.38,-0.80,-14.10,45.75,42.0,30.81,9.959,
01/01/2000,00:00:52.54,476.07,91.31,865.72,-2.69,3.37,-2.27,-12.30,45.75,43.05,30.86,9.959,
01/01/2000,00:00:52.64,491.21,102.05,869.63,-2.11,3.03,-2.89,-13.95,45.90,42.15,30.47,9.959,
01/01/2000,00:00:52.74,481.45,94.24,871.58,-2.60,4.58,-2.40,-12.60,46.50,42.75,30.62,9.959,
01/01/2000,00:00:52.84,487.79,92.77,877.93,-1.47,2.82,0.54,-13.35,47.25,42.30,30.47,9.959,
01/01/2000,00:00:52.94,479.98,92.77,884.28,1.45,3.53,2.84,-13.20,46.95,43.20,30.67,9.959,
01/01/2000,00:00:53.04,488.28,96.19,876.46,0.20,2.54,1.31,-13.20,48.15,43.20,30.67,9.959,
01/01/2000,00:00:53.14,482.91,103.03,878.42,1.01,-0.85,0.96,-13.35,45.75,43.05,30.71,9.959,
01/01/2000,00:00:53.24,479.98,102.05,881.35,-2.08,5.17,-1.58,-13.35,46.80,42.75,30.95,9.958,
01/01/2000,00:00:53.34,472.17,104.00,873.05,-0.88,4.49,1.80,-13.20,47.40,42.90,30.71,9.958,
01/01/2000,00:00:53.44,484.86,93.26,884.77,-1.36,4.73,-1.11,-13.20,45.45,42.90,30.43,9.958,
01/01/2000,00:00:53.55,474.61,105.96,882.81,1.50,-0.10,2.21,-12.30,45.30,41.55,30.52,9.958,
01/01/2000,00:00:53.65,480.47,105.47,880.86,-1.62,4.40,-2.15,-11.85,46.50,42.75,30.62,9.958,
01/01/2000,00:00:53.75,480.47,101.56,879.39,1.64,0.85,2.65,-12.60,44.55,43.35,30.62,9.958,
01/01/2000,00:00:53.85,479.00,102.54,888.18,-0.29,0.81,0.24,-12.60,45.30,42.0,30.62,9.958,
01/01/2000,00:00:53.95,463.87,88.87,882.32,-2.21,3.05,-2.18,-12.45,44.70,43.95,30.86,9.958,
01/01/2000,00:00:54.05,483.40,110.84,886.23,0.82,3.44,0.94,-13.20,44.70,41.40,30.52,9.958,
